time,seconds_elapsed,z,y,x
1764634054535516700,0.2135166015625,2.4119651317596436,5.882754325866699,-0.3320041298866272
1764634054552270300,0.230270263671875,1.7910277843475342,6.0197434425354,-1.1766705513000488
1764634054569014500,0.2470146484375,1.6175481081008911,6.526423931121826,-1.9405791759490967
1764634054585760800,0.2637607421875,2.3018953800201416,6.413960933685303,-2.076371908187866
1764634054602498000,0.280498046875,3.596412420272827,5.612963676452637,-1.6971094608306885
1764634054619256300,0.29725634765625,5.035097122192383,5.186442852020264,-1.4572290182113647
1764634054636012000,0.314011962890625,6.002993583679199,5.045864582061768,-1.100698471069336
1764634054652751000,0.330751220703125,6.521039962768555,5.013561725616455,-0.6765705943107605
1764634054669487900,0.34748779296875,6.684948444366455,5.018945693969727,-0.3038884699344635
1764634054686240800,0.36424072265625,6.623931407928467,4.980660438537598,-0.03170489892363548
1764634054702988300,0.38098828125,6.898507595062256,4.789832592010498,0.08255238085985184
1764634054719733000,0.39773291015625,7.735995769500732,4.734797954559326,0.2907279431819916
1764634054736482600,0.414482666015625,8.392227172851562,4.707878589630127,0.5234299302101135
1764634054753236500,0.431236572265625,8.876773834228516,4.613960266113281,0.6610172390937805
1764634054769969200,0.44796923828125,9.432506561279297,4.409373760223389,0.5545366406440735
1764634054786732500,0.464732666015625,10.49073314666748,4.216153621673584,0.4085744619369507
1764634054803484200,0.481484130859375,11.257034301757812,4.0797624588012695,0.40677985548973083
1764634054820246300,0.498246337890625,11.174481391906738,3.6436707973480225,0.33020952343940735
1764634054836954000,0.5149541015625,11.073385238647461,3.576073408126831,-0.09032905846834183
1764634054853711000,0.531711181640625,10.847861289978027,3.675973892211914,-0.018544375896453857
1764634054870455600,0.54845556640625,10.060623168945312,3.4103705883026123,-0.08374879509210587
1764634054887189800,0.565189697265625,9.471988677978516,3.2656047344207764,-0.5796613097190857
1764634054903950600,0.58195068359375,9.122037887573242,3.2452657222747803,-0.9326026439666748
1764634054920689400,0.598689453125,8.776873588562012,3.301496982574463,-1.1850453615188599
1764634054937454600,0.61545458984375,8.6303129196167,3.104687452316284,-1.0510473251342773
1764634054954198800,0.63219873046875,8.858827590942383,2.7080769538879395,-0.841675341129303
1764634054970926800,0.6489267578125,8.916254997253418,2.215155601501465,-0.6993024349212646
1764634054987688400,0.6656884765625,9.163313865661621,1.832902193069458,-0.5611169338226318
1764634055004438000,0.68243798828125,10.061819076538086,1.3519448041915894,-0.4827519655227661
1764634055021164300,0.699164306640625,10.527223587036133,1.4829518795013428,0.2721835672855377
1764634055037895400,0.7158955078125,10.712068557739258,1.770688772201538,0.5635097622871399
1764634055054663700,0.73266357421875,10.415956497192383,1.994417667388916,1.2717852592468262
1764634055071411000,0.749410888671875,9.893723487854004,2.084148406982422,1.301695466041565
1764634055088158000,0.766157958984375,9.535996437072754,1.8197416067123413,0.9678967595100403
1764634055104899000,0.782899169921875,9.257232666015625,1.2681959867477417,0.5473581552505493
1764634055121666800,0.799666748046875,8.367700576782227,0.3278166949748993,1.1694921255111694
1764634055138411300,0.816411376953125,7.802396297454834,0.3451646566390991,0.8602197170257568
1764634055155154000,0.83315380859375,9.965508460998535,0.5377869009971619,0.31046873331069946
1764634055171902000,0.84990185546875,12.585648536682129,-0.062213387340307236,1.6426727771759033
1764634055188649500,0.8666494140625,13.95972728729248,0.14297115802764893,2.8396823406219482
1764634055205387300,0.88338720703125,13.576875686645508,0.2997010350227356,3.2135608196258545
1764634055222148600,0.900148681640625,12.220743179321289,0.5880361795425415,3.0448668003082275
1764634055238887700,0.9168876953125,10.917851448059082,0.727418065071106,2.723032236099243
1764634055255633000,0.9336328125,10.317253112792969,0.39541393518447876,2.4993033409118652
1764634055272365000,0.950364990234375,11.013564109802246,0.12023933976888657,2.641077995300293
1764634055289116400,0.967116455078125,12.231511116027832,0.3678964674472809,2.7146573066711426
1764634055305861000,0.983861083984375,11.571091651916504,-0.5437689423561096,1.721037745475769
1764634055322608600,1.000608642578125,11.10030460357666,-1.1868400573730469,2.4765713214874268
1764634055339353300,1.017353271484375,10.720443725585938,-2.403590440750122,3.379862070083618
1764634055356102100,1.03410205078125,11.45563793182373,-3.033500909805298,2.794816732406616
1764634055372847600,1.05084765625,13.088739395141602,-2.6362924575805664,2.939582586288452
1764634055389594400,1.067594482421875,13.907683372497559,-3.145963668823242,3.6161532402038574
1764634055406339000,1.084339111328125,14.216357231140137,-3.135794162750244,4.451846599578857
1764634055423076000,1.101076171875,14.051851272583008,-3.122035264968872,4.012763500213623
1764634055439847000,1.117846923828125,13.709078788757324,-2.7732813358306885,3.803391695022583
1764634055456591400,1.13459130859375,11.293524742126465,-1.8131613731384277,2.9826533794403076
1764634055473323300,1.1513232421875,8.329415321350098,-0.7639086246490479,3.1716864109039307
1764634055490073000,1.168072998046875,6.7692952156066895,0.1698904037475586,3.6017963886260986
1764634055506819800,1.18481982421875,8.197810173034668,-0.5150550603866577,4.621138572692871
1764634055523566000,1.201566162109375,9.725028991699219,-0.2715853750705719,4.168296813964844
1764634055540311600,1.2183115234375,9.900901794433594,-0.26141586899757385,3.78544545173645
1764634055557044500,1.23504443359375,9.574281692504883,-0.24287149310112,3.403790235519409
1764634055573807400,1.251807373046875,9.003593444824219,-0.014955141581594944,3.4103705883026123
1764634055590550500,1.268550537109375,8.616554260253906,0.4863412082195282,3.3828530311584473
1764634055607282400,1.285282470703125,8.507680892944336,0.8500502705574036,3.077169895172119
1764634055624044800,1.302044921875,9.227920532226562,0.550349235534668,3.266801118850708
1764634055640788700,1.318788818359375,9.089137077331543,0.6125625967979431,3.415156126022339
1764634055657524000,1.33552392578125,8.209774017333984,1.0552347898483276,3.188436269760132
1764634055674304000,1.352303955078125,7.488338470458984,1.368694543838501,2.5782663822174072
1764634055691044900,1.369044921875,7.867600917816162,1.5278172492980957,1.9561325311660767
1764634055707769300,1.385769287109375,8.701499938964844,1.7312071323394775,1.4859428405761719
1764634055724545000,1.402544921875,8.217551231384277,2.6727828979492188,2.2193429470062256
1764634055741279700,1.41927978515625,6.422336101531982,2.572284460067749,4.651647090911865
1764634055758011000,1.436010986328125,4.0558342933654785,2.14935302734375,5.278566837310791
1764634055774770200,1.452770263671875,5.573482036590576,3.0101709365844727,3.248854875564575
1764634055791526700,1.469526611328125,11.851052284240723,3.583251953125,0.973878800868988
1764634055808247000,1.4862470703125,15.38525104522705,0.8841479420661926,3.3678979873657227
1764634055824998000,1.502997802734375,15.86022663116455,-0.19621145725250244,5.7750773429870605
1764634055841745400,1.519745361328125,15.282958030700684,1.2430713176727295,3.726821184158325
1764634055858499600,1.53649951171875,12.665210723876953,1.5607185363769531,2.246262311935425
1764634055875240200,1.553240234375,10.853245735168457,2.627917528152466,2.1607189178466797
1764634055891987000,1.569987060546875,10.51107120513916,3.2542388439178467,3.1232316493988037
1764634055908721400,1.586721435546875,11.4981107711792,3.472583770751953,4.330410957336426
1764634055925480000,1.60347998046875,12.177074432373047,3.345165967941284,3.888935089111328
1764634055942227200,1.620227294921875,13.155738830566406,4.267001152038574,2.568096876144409
1764634055958973200,1.63697314453125,12.843475341796875,3.9595232009887695,3.008376359939575
1764634055975727900,1.653727783203125,12.93200969696045,4.1659040451049805,2.7218358516693115
1764634055992458200,1.670458251953125,12.595220565795898,3.796213150024414,2.6362924575805664
1764634056009213400,1.68721337890625,12.689736366271973,3.964308977127075,2.7696921825408936
1764634056025959000,1.703958984375,13.012767791748047,4.1659040451049805,4.050450325012207
1764634056042706400,1.72070654296875,12.722040176391602,4.3758745193481445,5.103292465209961
1764634056059453200,1.737453125,11.624930381774902,4.511667251586914,4.737788677215576
1764634056076198000,1.754197998046875,10.179067611694336,4.378267288208008,3.851846218109131
1764634056092961500,1.77096142578125,9.937392234802246,4.420739650726318,3.235694408416748
1764634056109760000,1.787760009765625,9.644271850585938,4.47697114944458,2.8630123138427734
1764634056126450400,1.804450439453125,9.189635276794434,4.542773723602295,2.864208698272705
1764634056143197200,1.821197265625,8.486145973205566,4.478765964508057,2.593221426010132
1764634056159944400,1.8379443359375,7.683353424072266,4.275375843048096,2.121835470199585
1764634056176690000,1.85468994140625,7.047461032867432,4.048655986785889,1.654038667678833
1764634056193437200,1.871437255859375,6.500102519989014,4.257429599761963,1.4452649354934692
1764634056210165800,1.888165771484375,6.461219310760498,4.243072986602783,1.1635099649429321
1764634056226932500,1.904932373046875,6.518647193908691,4.089931964874268,0.6993024349212646
1764634056243673600,1.921673583984375,6.108277797698975,4.213162422180176,-0.16031911969184875
1764634056260423700,1.938423583984375,5.232504844665527,4.1868414878845215,-0.550349235534668
1764634056277168400,1.95516845703125,3.8919260501861572,4.110869407653809,-1.1162517070770264
1764634056293910300,1.97191015625,3.04307222366333,4.304687976837158,-1.415354609489441
1764634056310664400,1.98866455078125,2.5292134284973145,4.97348165512085,-1.9441684484481812
1764634056327397400,2.0053974609375,1.7383856773376465,5.243870735168457,-1.846660852432251
1764634056344141300,2.022141357421875,0.5892325639724731,5.537590026855469,-1.5230315923690796
1764634056360888000,2.03888818359375,-0.09391828626394272,6.378068923950195,-2.11824631690979
1764634056377637400,2.055637451171875,-1.0031908750534058,6.725028038024902,-2.9383862018585205
1764634056394381300,2.07238134765625,-1.373480200767517,6.4510498046875,-2.7559335231781006
1764634056411131400,2.08913134765625,-1.1766705513000488,6.427719593048096,-2.66560435295105
1764634056427887600,2.1058876953125,-1.415354609489441,6.522834300994873,-2.2779672145843506
1764634056444632000,2.122632080078125,-2.713460922241211,6.80159854888916,-2.222334146499634
1764634056461365200,2.139365234375,-4.133601188659668,7.218547821044922,-2.5052852630615234
1764634056478116000,2.1561162109375,-4.729413986206055,7.384250640869141,-2.967698335647583
1764634056494860500,2.172860595703125,-4.796412944793701,7.389036178588867,-2.9629125595092773
1764634056511606500,2.1896064453125,-4.8089752197265625,7.250252723693848,-2.9102704524993896
1764634056528355000,2.20635498046875,-5.125426292419434,7.229913711547852,-3.1004998683929443
1764634056545102300,2.223102294921875,-5.395814895629883,7.516454219818115,-3.219542980194092
1764634056561846800,2.2398466796875,-5.126622676849365,8.01057243347168,-3.0281169414520264
1764634056578579700,2.256579833984375,-5.389235019683838,9.177671432495117,-1.181456208229065
1764634056595339300,2.27333935546875,-3.638286828994751,7.976474285125732,-2.768495798110962
1764634056612072700,2.29007275390625,-3.2309088706970215,7.829315662384033,-2.96111798286438
1764634056628833500,2.30683349609375,-3.279961585998535,7.944170951843262,-2.8941190242767334
1764634056645574400,2.323574462890625,-4.1042890548706055,8.382058143615723,-2.404188632965088
1764634056662329600,2.34032958984375,-4.942973613739014,8.74337387084961,-1.9812572002410889
1764634056679087400,2.35708740234375,-5.115854740142822,8.804988861083984,-2.0476579666137695
1764634056695836200,2.373836181640625,-4.450650215148926,8.663812637329102,-2.2307088375091553
1764634056712578000,2.390578125,-3.8703906536102295,8.35872745513916,-2.499901533126831
1764634056729323800,2.40732373046875,-3.8494534492492676,8.071588516235352,-2.767897605895996
1764634056746073300,2.4240732421875,-4.265804767608643,7.95553731918335,-3.1591241359710693
1764634056762815700,2.440815673828125,-4.463212490081787,7.993224143981934,-3.4552359580993652
1764634056779562800,2.457562744140625,-4.204787731170654,7.969893932342529,-3.5994033813476562
1764634056796308700,2.474308837890625,-3.4815568923950195,7.794619560241699,-3.625126361846924
1764634056813041400,2.49104150390625,-3.014956474304199,7.490133285522461,-3.583251953125
1764634056829768700,2.507768798828125,-3.219542980194092,7.321439266204834,-3.678964853286743
1764634056846536000,2.524535888671875,-3.8943188190460205,7.372286796569824,-3.67238450050354
1764634056863283700,2.54128369140625,-4.345963954925537,7.6630144119262695,-3.580260992050171
1764634056880030200,2.5580302734375,-4.096512317657471,7.543971538543701,-3.6909289360046387
1764634056896785000,2.574784912109375,-3.2482566833496094,7.4362945556640625,-3.4444682598114014
1764634056913538800,2.591538818359375,-2.4287149906158447,7.400402069091797,-2.9252257347106934
1764634056930281700,2.60828173828125,-2.1056840419769287,7.258029460906982,-2.4909284114837646
1764634056947004700,2.625004638671875,-2.134995937347412,6.597012042999268,-2.902493953704834
1764634056963758600,2.641758544921875,-2.38983154296875,5.993422508239746,-3.3948171138763428
1764634056980508700,2.6585087890625,-2.600399971008301,6.0263237953186035,-3.193819999694824
1764634056997256200,2.675256103515625,-2.337787628173828,6.218348026275635,-2.9359934329986572
1764634057013997600,2.69199755859375,-1.3112667798995972,5.824130535125732,-3.0101709365844727
1764634057030748400,2.70874853515625,0.3152543902397156,5.182255744934082,-3.019144058227539
1764634057047495400,2.725495361328125,1.573280930519104,4.659423828125,-2.669193744659424
1764634057064240400,2.742240478515625,2.1643080711364746,4.584648132324219,-1.9579271078109741
1764634057080983600,2.758983642578125,2.9210381507873535,4.673182487487793,-1.3716856241226196
1764634057097739500,2.775739501953125,4.428516387939453,4.624728202819824,-1.0307083129882812
1764634057114486000,2.792486083984375,5.293521881103516,4.971687316894531,-0.3248256742954254
1764634057131238100,2.809238037109375,6.0879387855529785,5.0362935066223145,0.07477571070194244
1764634057147987700,2.82598779296875,6.73938512802124,4.7988057136535645,-0.3188436031341553
1764634057164732000,2.84273193359375,6.824928283691406,4.6989054679870605,-0.7016952633857727
1764634057181457000,2.859456787109375,6.845865726470947,4.382454872131348,-0.9457631707191467
1764634057198228700,2.876228759765625,6.340381622314453,4.256831645965576,-0.7962117195129395
1764634057214971000,2.892970947265625,5.807978630065918,4.092324733734131,-0.11665010452270508
1764634057231714300,2.90971435546875,6.3391852378845215,3.7782669067382812,0.6658028960227966
1764634057248451800,2.926451904296875,8.515457153320312,3.3918261528015137,1.4590235948562622
1764634057265209300,2.943209228515625,11.001002311706543,3.2937204837799072,2.342573404312134
1764634057281936600,2.9599365234375,11.538788795471191,3.257229804992676,2.9772696495056152
1764634057298703400,2.976703369140625,10.840682983398438,3.4277184009552,3.5048868656158447
1764634057315437000,2.99343701171875,10.802995681762695,3.36969256401062,3.524029493331909
1764634057332185000,3.01018505859375,11.398210525512695,3.342773199081421,4.1970109939575195
1764634057348931800,3.026931884765625,11.49093246459961,3.3720853328704834,4.84187650680542
1764634057365672700,3.043672607421875,11.282756805419922,3.1752755641937256,5.148158073425293
1764634057382412500,3.06041259765625,10.688140869140625,2.7667012214660645,5.048855781555176
1764634057399174700,3.077174560546875,10.283753395080566,2.507079839706421,5.044668197631836
1764634057415914000,3.0939140625,10.38784122467041,2.1577277183532715,5.312066078186035
1764634057432673500,3.110673583984375,10.800004959106445,2.1397817134857178,5.56450891494751
1764634057449407700,3.12740771484375,11.10748291015625,2.0781664848327637,5.840879917144775
1764634057466155500,3.144155517578125,11.450254440307617,1.7635103464126587,6.169893264770508
1764634057482894300,3.160894287109375,11.984452247619629,1.3627125024795532,6.196812629699707
1764634057499653600,3.177653564453125,12.010773658752441,0.9655039310455322,5.861817359924316
1764634057516394800,3.194394775390625,11.304292678833008,0.7339983582496643,5.5998029708862305
1764634057533142800,3.211142822265625,10.289735794067383,0.7501499056816101,5.477769374847412
1764634057549887200,3.22788720703125,9.963713645935059,1.00259268283844,5.976074695587158
1764634057566643000,3.244642822265625,10.280762672424316,0.9750752449035645,6.329015731811523
1764634057583399700,3.261399658203125,10.951351165771484,0.8668000102043152,6.475576400756836
1764634057600141800,3.278141845703125,11.105090141296387,0.7381857633590698,6.274579048156738
1764634057616852000,3.29485205078125,10.551749229431152,0.6837490797042847,6.662814617156982
1764634057633639400,3.311639404296875,9.476176261901855,0.9631111025810242,7.588238716125488
1764634057650362400,3.3283623046875,8.158926963806152,1.0408778190612793,7.204190731048584
1764634057667123200,3.345123291015625,8.425128936767578,0.4576273262500763,6.586244106292725
1764634057683857400,3.361857421875,9.128020286560059,-0.22492532432079315,6.282954216003418
1764634057700625400,3.37862548828125,9.290133476257324,-0.7034898400306702,6.2871413230896
1764634057717332000,3.39533203125,8.651249885559082,-1.0546365976333618,6.116054534912109
1764634057734082300,3.412082275390625,8.458029747009277,-1.2323036193847656,6.565307140350342
1764634057750831600,3.42883154296875,8.39282512664795,-1.25144624710083,7.039085865020752
1764634057767593500,3.445593505859375,7.974679470062256,-1.4727823734283447,7.345367431640625
1764634057784340200,3.46234033203125,7.563114166259766,-1.5409778356552124,7.1024956703186035
1764634057801083000,3.479082763671875,7.46201753616333,-1.5990036725997925,6.758527755737305
1764634057817821400,3.495821533203125,7.487142086029053,-1.6516457796096802,6.921239376068115
1764634057834579700,3.512579833984375,7.443472862243652,-1.555932879447937,7.050451755523682
1764634057851326000,3.529325927734375,7.266404151916504,-1.5230315923690796,7.107879638671875
1764634057868072700,3.54607275390625,7.286144733428955,-1.561316728591919,7.217949390411377
1764634057884803300,3.56280322265625,7.195217609405518,-1.4799607992172241,7.351947784423828
1764634057901581600,3.57958154296875,6.879364967346191,-1.5002998113632202,7.247859954833984
1764634057918321400,3.5963212890625,6.735795974731445,-1.495514154434204,7.343572616577148
1764634057935055600,3.6130556640625,6.826723098754883,-1.5290136337280273,7.2813591957092285
1764634057951804700,3.6298046875,7.132406234741211,-1.5332010984420776,7.146762847900391
1764634057968551200,3.64655126953125,7.537989616394043,-1.4075778722763062,7.074379920959473
1764634057985297700,3.663297607421875,7.700103282928467,-1.4069796800613403,7.001997470855713
1764634058002045000,3.680044921875,7.8819580078125,-1.4590235948562622,6.911069869995117
1764634058018790400,3.696790283203125,8.069195747375488,-1.5014961957931519,6.9583282470703125
1764634058035553500,3.713553466796875,8.251648902893066,-1.5391831398010254,7.058228492736816
1764634058052278000,3.730278076171875,8.299505233764648,-1.5487544536590576,7.082156658172607
1764634058069043000,3.74704296875,8.452646255493164,-1.5050854682922363,7.249056339263916
1764634058085785000,3.76378515625,8.418548583984375,-1.3902299404144287,7.368697166442871
1764634058102524400,3.7805244140625,8.37009334564209,-1.3088740110397339,7.335197925567627
1764634058119269600,3.79726953125,8.306085586547852,-1.0845468044281006,7.354938507080078
1764634058136016400,3.814016357421875,8.399405479431152,-0.729810893535614,7.536793231964111
1764634058152762400,3.830762451171875,8.689535140991211,-0.4366901218891144,7.88076114654541
1764634058169509000,3.847509033203125,8.825926780700684,-0.503689169883728,8.415556907653809
1764634058186255600,3.864255615234375,9.047262191772461,0.30628129839897156,7.9040913581848145
1764634058203018800,3.881018798828125,9.5802640914917,0.2309073805809021,8.380861282348633
1764634058219755300,3.89775537109375,9.906285285949707,0.08374879509210587,8.289336204528809
1764634058236489000,3.914489013671875,10.525428771972656,0.20518454909324646,7.867600917816162
1764634058253259000,3.931259033203125,11.206186294555664,0.37447673082351685,7.258627414703369
1764634058269978400,3.947978271484375,12.232109069824219,0.6215356588363647,7.079763889312744
1764634058286725400,3.964725341796875,13.48594856262207,0.7639086246490479,7.703692436218262
1764634058303480800,3.981480712890625,14.053645133972168,0.8422735929489136,9.064610481262207
1764634058320224000,3.99822412109375,13.405190467834473,0.735194742679596,9.520442962646484
1764634058336977400,4.014977294921875,12.503096580505371,0.3206382393836975,8.982057571411133
1764634058353720000,4.031719970703125,11.900105476379395,0.0364905446767807,8.007580757141113
1764634058370467000,4.048467041015625,11.743973731994629,-0.02153540402650833,6.869793891906738
1764634058387195000,4.06519482421875,12.102298736572266,-0.13519448041915894,6.391229152679443
1764634058403962600,4.081962646484375,12.341581344604492,-0.2111666053533554,6.103492259979248
1764634058420690400,4.0986904296875,12.000603675842285,-0.21714866161346436,5.745765209197998
1764634058437437700,4.115437744140625,11.338988304138184,-0.07058826833963394,5.469992637634277
1764634058454195700,4.13219580078125,10.360921859741211,0.09451649338006973,5.104488849639893
1764634058470950000,4.148949951171875,9.65384292602539,0.39840495586395264,4.613960266113281
1764634058487690200,4.165690185546875,9.148359298706055,0.7465606927871704,4.333401679992676
1764634058504438800,4.182438720703125,8.547162055969238,1.036690354347229,4.0767717361450195
1764634058521185000,4.19918505859375,8.179863929748535,1.3567304611206055,3.6287155151367188
1764634058537928000,4.215927978515625,7.668996810913086,1.618146300315857,3.0658040046691895
1764634058554681600,4.232681640625,7.225726127624512,1.8562321662902832,2.478964328765869
1764634058571417600,4.24941748046875,6.828517436981201,2.276770830154419,2.059622049331665
1764634058588170800,4.266170654296875,6.058627128601074,2.700300455093384,1.6169499158859253
1764634058604915700,4.282915771484375,5.494519233703613,3.1818559169769287,1.2747762203216553
1764634058621665800,4.299665771484375,5.18823766708374,3.669393539428711,1.0031908750534058
1764634058638395100,4.31639501953125,4.916652202606201,4.214358806610107,1.205384373664856
1764634058655157000,4.333156982421875,4.931009292602539,4.621737003326416,0.6556333899497986
1764634058671902700,4.34990283203125,4.482953071594238,4.615156650543213,-0.4713860750198364
1764634058688650500,4.366650390625,4.206582069396973,4.686343193054199,-1.532004714012146
1764634058705399300,4.3833994140625,3.946960926055908,4.647459983825684,-2.215155601501465
1764634058722138400,4.400138427734375,3.1890344619750977,4.798207759857178,-2.6249263286590576
1764634058738887400,4.416887451171875,1.9094724655151367,4.880760192871094,-3.257229804992676
1764634058755634700,4.433634765625,0.7052844762802124,5.149952411651611,-3.680161237716675
1764634058772389600,4.4503896484375,0.003589233849197626,5.521438121795654,-3.9984066486358643
1764634058789125400,4.46712548828125,0.020937198773026466,5.708078384399414,-4.094119548797607
1764634058805875700,4.483875732421875,-0.061016976833343506,5.712863922119141,-4.127020835876465
1764634058822621400,4.500621337890625,-0.19680966436862946,5.855835437774658,-4.3752760887146
1764634058839368000,4.517367919921875,-0.21296121180057526,5.98026180267334,-4.72881555557251
1764634058856114700,4.53411474609375,-0.6059823632240295,5.935994625091553,-5.158327579498291
1764634058872861200,4.550861083984375,-1.2137593030929565,5.8959150314331055,-5.424529075622559
1764634058889623600,4.56762353515625,-2.252842426300049,5.959922790527344,-5.733202934265137
1764634058906351000,4.58435107421875,-3.187239646911621,6.072385787963867,-6.118447303771973
1764634058923084800,4.601084716796875,-3.680161237716675,6.027520179748535,-6.336792469024658
1764634058939847200,4.61784716796875,-4.3411784172058105,6.145366668701172,-6.20638370513916
1764634058956593700,4.63459375,-4.902893543243408,6.460022926330566,-6.175875186920166
1764634058973340200,4.651340087890625,-4.980660438537598,6.535995006561279,-6.25723123550415
1764634058990086400,4.66808642578125,-4.660022258758545,6.608976364135742,-6.099903106689453
1764634059006849800,4.684849853515625,-4.1491546630859375,6.917052268981934,-5.565107345581055
1764634059023592400,4.701592529296875,-3.5132617950439453,7.129415035247803,-5.016552448272705
1764634059040338400,4.71833837890625,-3.355933666229248,7.335795879364014,-4.600799560546875
1764634059057085400,4.73508544921875,-3.386442184448242,7.613363265991211,-4.371088981628418
1764634059073832700,4.751832763671875,-3.4642090797424316,7.832904815673828,-4.237090587615967
1764634059090578200,4.768578125,-3.5324044227600098,7.957331657409668,-4.289134502410889
1764634059107325200,4.7853251953125,-3.580260992050171,7.9381890296936035,-4.322634220123291
1764634059124071400,4.802071533203125,-3.7698919773101807,7.784450054168701,-4.265206336975098
1764634059140813000,4.81881298828125,-3.7842490673065186,7.755736351013184,-4.217350006103516
1764634059157569000,4.835569091796875,-3.689134359359741,7.789236068725586,-4.36091947555542
1764634059174311200,4.852311279296875,-3.479762315750122,7.813762187957764,-4.614558696746826
1764634059191057200,4.86905712890625,-3.0927233695983887,7.83410120010376,-4.682155609130859
1764634059207804400,4.885804443359375,-2.7978079319000244,7.974081516265869,-4.869394302368164
1764634059224542200,4.902542236328125,-1.947757601737976,8.100900650024414,-5.02432918548584
1764634059241304300,4.91930419921875,-1.0396814346313477,8.117650985717773,-5.217549800872803
1764634059258043400,4.93604345703125,-0.5946164131164551,8.085348129272461,-5.1804609298706055
1764634059274787000,4.952787109375,-0.857228696346283,8.046463966369629,-5.026721954345703
1764634059291519500,4.96951953125,-1.5056836605072021,7.853243827819824,-4.877170562744141
1764634059308273200,4.986273193359375,-2.60339093208313,7.701898097991943,-4.679164886474609
1764634059325016000,5.00301611328125,-3.6879379749298096,7.545167922973633,-4.537988185882568
1764634059341762600,5.019762451171875,-4.193421840667725,7.438687324523926,-4.417150497436523
1764634059358508800,5.0365087890625,-4.17726993560791,7.285546779632568,-4.302893161773682
1764634059375254000,5.05325390625,-4.0426740646362305,7.165905475616455,-4.260420799255371
1764634059392003000,5.070003173828125,-3.586242914199829,6.985247611999512,-4.118047714233398
1764634059408748800,5.086748779296875,-3.169891834259033,7.000801086425781,-3.9948174953460693
1764634059425494500,5.10349462890625,-2.667997360229492,7.007380962371826,-4.0767717361450195
1764634059442238000,5.120238037109375,-1.9980069398880005,6.956533432006836,-3.978067636489868
1764634059458991000,5.1369912109375,-1.2502498626708984,6.853642463684082,-3.865006685256958
1764634059475734500,5.153734619140625,-0.9918249845504761,6.806384086608887,-3.8321053981781006
1764634059492480500,5.17048046875,-0.8428717851638794,6.768697261810303,-3.6747772693634033
1764634059509225500,5.1872255859375,0.04247260093688965,6.80458927154541,-3.466601848602295
1764634059525976000,5.20397607421875,0.841675341129303,6.644270420074463,-3.559323787689209
1764634059542720500,5.220720458984375,0.9954141974449158,6.4289164543151855,-3.937389612197876
1764634059559466800,5.237466796875,0.849452018737793,6.15553617477417,-3.9565322399139404
1764634059576210200,5.254210205078125,0.6981059908866882,6.131608009338379,-3.5258240699768066
1764634059592962300,5.27096240234375,1.064207911491394,5.950351715087891,-3.1351959705352783
1764634059609689900,5.28768994140625,1.8556339740753174,5.880959987640381,-2.572882652282715
1764634059626452200,5.3044521484375,3.119642496109009,5.817550182342529,-2.1026928424835205
1764634059643198700,5.32119873046875,4.71027135848999,5.5591254234313965,-1.866999864578247
1764634059659941000,5.337941162109375,5.697310924530029,5.226522922515869,-2.11824631690979
1764634059676697000,5.354697021484375,5.799005508422852,4.944767951965332,-2.572882652282715
1764634059701815800,5.37981591796875,5.8923258781433105,4.715056896209717,-2.3676979541778564
1764634059718558000,5.396557861328125,6.267400741577148,4.6540398597717285,-1.8717855215072632
1764634059735305200,5.41330517578125,6.656832695007324,4.511667251586914,-1.6145570278167725
1764634059752051200,5.43005126953125,6.826723098754883,4.420739650726318,-0.9457631707191467
1764634059768798000,5.4467978515625,7.623532772064209,4.2556352615356445,-0.4265206456184387
1764634059785540000,5.4635400390625,8.4502534866333,3.6646077632904053,-0.5724828243255615
1764634059802294800,5.480294677734375,8.247461318969727,3.4582269191741943,-0.2709871530532837
1764634059819037200,5.497037109375,8.322237014770508,3.257229804992676,0.3122633695602417
1764634059835783700,5.51378369140625,9.074779510498047,3.3409786224365234,1.1377872228622437
1764634059852514300,5.530514404296875,9.68494987487793,3.2374889850616455,1.8293129205703735
1764634059869277200,5.547277099609375,10.186843872070312,2.7553353309631348,2.042872428894043
1764634059886018800,5.564018798828125,9.358927726745605,2.451446771621704,2.7182464599609375
1764634059902773500,5.5807734375,8.48734188079834,2.324627161026001,3.4468610286712646
1764634059919515600,5.597515625,8.95693302154541,2.359323024749756,3.9050865173339844
1764634059936262700,5.6142626953125,10.129416465759277,2.358126640319824,4.289732933044434
1764634059953009200,5.631009033203125,10.843673706054688,2.2067806720733643,4.316651821136475
1764634059969769700,5.647769775390625,11.456236839294434,1.8448662757873535,3.559323787689209
1764634059986492400,5.664492431640625,12.215957641601562,1.7174484729766846,2.8737800121307373
1764634060003266300,5.681266357421875,12.948161125183105,1.9351953268051147,3.6610186100006104
1764634060020003300,5.69800341796875,12.891331672668457,2.3132612705230713,4.842474937438965
1764634060036758800,5.7147587890625,12.332608222961426,2.407179594039917,5.4795637130737305
1764634060053486800,5.73148681640625,11.914462089538574,2.0614166259765625,5.504090309143066
1764634060070247700,5.74824755859375,11.851052284240723,1.6259230375289917,5.346164226531982
1764634060086992000,5.764991943359375,11.657832145690918,1.2664014101028442,5.470590591430664
1764634060103734300,5.781734375,10.953743934631348,0.9768698215484619,5.907280921936035
1764634060120468700,5.79846875,9.723235130310059,0.5856433510780334,5.8953166007995605
1764634060137233200,5.815233154296875,9.415159225463867,0.22552353143692017,5.904888153076172
1764634060153980200,5.831980224609375,10.50927734375,-0.13998012244701385,6.265605926513672
1764634060170727000,5.848726806640625,11.639885902404785,-0.18903298676013947,6.631109714508057
1764634060187449000,5.865448974609375,11.48255729675293,-0.1657029688358307,6.841678142547607
1764634060204223500,5.882223388671875,10.394421577453613,0.02273181453347206,6.701099872589111
1764634060220961800,5.8989619140625,9.399605751037598,0.005383851006627083,6.564708709716797
1764634060237700000,5.9157001953125,8.894122123718262,-0.18723836541175842,6.574878215789795
1764634060254446800,5.93244677734375,8.345566749572754,-0.34695929288864136,6.63350248336792
1764634060271192600,5.949192626953125,7.95134973526001,-0.6592226624488831,6.605386734008789
1764634060287934700,5.965934814453125,7.715058326721191,-1.0432707071304321,6.571887493133545
1764634060304689200,5.982689208984375,7.8664045333862305,-1.425524115562439,6.5904316902160645
1764634060321415400,5.99941552734375,7.892127513885498,-1.7413766384124756,6.308078765869141
1764634060338178600,6.016178466796875,7.878966808319092,-1.9184455871582031,6.212365627288818
1764634060354921200,6.032921142578125,7.978867053985596,-1.755733609199524,6.394220352172852
1764634060371674600,6.049674560546875,7.777271747589111,-1.6510475873947144,6.422934055328369
1764634060388422400,6.06642236328125,7.642077445983887,-1.5122638940811157,6.437889099121094
1764634060405164500,6.08316455078125,7.613363265991211,-1.4452649354934692,6.67717170715332
1764634060421905700,6.09990576171875,7.614559650421143,-1.368694543838501,7.207779884338379
1764634060438661600,6.11666162109375,7.576274871826172,-0.8805587291717529,8.595019340515137
1764634060455403000,6.133403076171875,8.331210136413574,-0.6436693072319031,9.019146919250488
1764634060472150500,6.150150634765625,8.876773834228516,-0.8817551732063293,8.553742408752441
1764634060488894200,6.166894287109375,8.858229637145996,-1.2263215780258179,7.659425258636475
1764634060505641000,6.183640869140625,8.02791976928711,-1.7647067308425903,6.853044033050537
1764634060522377700,6.200377685546875,7.082156658172607,-2.050050735473633,6.386443614959717
1764634060539136300,6.21713623046875,6.667002201080322,-2.276172637939453,6.15254545211792
1764634060555878100,6.233878173828125,6.542575359344482,-2.252842426300049,6.138786315917969
1764634060572633000,6.250633056640625,6.623931407928467,-2.242672920227051,6.114260196685791
1764634060589359600,6.267359619140625,6.871588230133057,-2.1272194385528564,6.190830230712891
1764634060606158600,6.28415869140625,7.109674453735352,-1.9351953268051147,6.285944938659668
1764634060622886700,6.30088671875,7.256833076477051,-1.786242127418518,6.476772785186768
1764634060639627000,6.317626953125,7.567899703979492,-1.6277176141738892,6.81595516204834
1764634060656374000,6.3343740234375,7.791628837585449,-1.4207384586334229,7.073781967163086
1764634060673105000,6.35110498046875,7.680960655212402,-1.3304094076156616,7.179066181182861
1764634060689838300,6.36783837890625,7.623532772064209,-1.2873386144638062,7.274778842926025
1764634060706601000,6.38460107421875,7.743772506713867,-1.3537393808364868,7.222136974334717
1764634060723347200,6.40134716796875,7.75334358215332,-1.4787644147872925,6.958926677703857
1764634060740078300,6.418078369140625,7.786843299865723,-1.540379524230957,6.690930366516113
1764634060756840000,6.43483984375,7.901698589324951,-1.5882359743118286,6.580860614776611
1764634060773587200,6.451587158203125,8.015955924987793,-1.5445669889450073,6.580262184143066
1764634060790317000,6.468317138671875,7.847261905670166,-1.425524115562439,6.566503524780273
1764634060807080000,6.485079833984375,7.95134973526001,-1.2197413444519043,6.6143598556518555
1764634060823826000,6.501825927734375,8.508877754211426,-0.9308080077171326,6.890730857849121
1764634060840557000,6.51855712890625,9.31166934967041,-0.6843472719192505,7.348358154296875
1764634060857319000,6.53531884765625,9.89013385772705,-0.4863412082195282,7.791628837585449
1764634060874060500,6.552060546875,10.351350784301758,-0.13519448041915894,7.81974458694458
1764634060890796300,6.56879638671875,11.071590423583984,0.129810631275177,7.985447406768799
1764634060907559000,6.585558837890625,11.936595916748047,0.4007977843284607,8.438288688659668
1764634060924287500,6.60228759765625,12.346366882324219,0.6939185857772827,8.762516975402832
1764634060941035000,6.619034912109375,12.868001937866211,0.6664010882377625,8.804390907287598
1764634060957797600,6.635797607421875,13.50568962097168,0.47676992416381836,8.778668403625488
1764634060974544400,6.65254443359375,13.201202392578125,0.17946170270442963,8.401798248291016
1764634060991275800,6.66927587890625,12.574881553649902,-0.09571290761232376,7.75753116607666
1764634061008037600,6.68603759765625,11.933605194091797,-0.39900317788124084,6.883552551269531
1764634061024777700,6.70277783203125,11.952149391174316,-0.6047859191894531,5.946164131164551
1764634061041536300,6.719536376953125,12.233305931091309,-0.6951149702072144,5.414957523345947
1764634061058276400,6.7362763671875,12.097513198852539,-0.5228317379951477,5.204987525939941
1764634061075023400,6.7530234375,11.784651756286621,-0.36610186100006104,4.966901779174805
1764634061091751400,6.76975146484375,11.375478744506836,-0.14715859293937683,4.781457901000977
1764634061108519200,6.786519287109375,11.209775924682617,0.25004997849464417,4.815555572509766
1764634061125262300,6.803262451171875,11.011171340942383,0.5605186820030212,4.682754039764404
1764634061142006500,6.820006591796875,10.42492961883545,0.8267202377319336,4.617549419403076
1764634061158767600,6.836767578125,10.12463092803955,1.2089736461639404,4.369892120361328
1764634061175499800,6.853499755859375,9.729815483093262,1.4327025413513184,3.9690945148468018
1764634061192248300,6.870248291015625,9.454042434692383,1.657029628753662,3.6017963886260986
1764634061208995300,6.886995361328125,9.09691333770752,2.038684844970703,3.555136203765869
1764634061225737500,6.903737548828125,8.50588607788086,2.3437697887420654,3.3367912769317627
1764634061242492000,6.920491943359375,8.23549747467041,2.390429735183716,2.5298118591308594
1764634061259234300,6.937234375,7.533802032470703,2.4364917278289795,1.6420745849609375
1764634061275981300,6.953981201171875,7.291528701782227,2.6273193359375,0.9260223507881165
1764634061292724700,6.970724853515625,6.925426959991455,2.8175487518310547,0.6065805554389954
1764634061309476900,6.987476806640625,6.0610198974609375,3.0975089073181152,0.09212367236614227
1764634061326205000,7.004204833984375,5.042873859405518,3.477369546890259,-0.14416755735874176
1764634061342967000,7.020967041015625,4.418346881866455,3.8015968799591064,-0.3481557071208954
1764634061359708000,7.0377080078125,3.219542980194092,4.12343168258667,-0.5264210104942322
1764634061376465400,7.05446533203125,2.042872428894043,4.618147850036621,-0.7292127013206482
1764634061393206000,7.0712060546875,1.225723385810852,4.979464054107666,-1.2287144660949707
1764634061409940500,7.0879404296875,0.39900317788124084,5.340780258178711,-1.7048860788345337
1764634061426724000,7.10472412109375,-0.26500511169433594,5.650052547454834,-2.1858434677124023
1764634061443460600,7.121460693359375,-0.37806597352027893,5.912664890289307,-2.5292134284973145
1764634061460205300,7.138205322265625,0.059820566326379776,6.101099491119385,-2.7212376594543457
1764634061476951800,7.154951904296875,0.04785645380616188,6.306882381439209,-2.9557342529296875
1764634061493675000,7.171675048828125,-0.6245267391204834,6.491129398345947,-3.4031920433044434
1764634061510449700,7.18844970703125,-1.2442678213119507,6.680760860443115,-3.8703906536102295
1764634061527190800,7.205190673828125,-1.7593228816986084,6.8997039794921875,-4.361517429351807
1764634061543933000,7.221932861328125,-1.9399809837341309,7.186244487762451,-4.834099769592285
1764634061560687400,7.238687255859375,-1.7072789669036865,7.320840835571289,-5.111667156219482
1764634061577774000,7.255774169921875,-1.726421594619751,7.3639116287231445,-4.934598445892334
1764634061594163700,7.272163818359375,-2.0470597743988037,7.47338342666626,-4.728217601776123
1764634061610903800,7.28890380859375,-2.42093825340271,7.606184959411621,-4.560121536254883
1764634061627660300,7.305660400390625,-2.6428725719451904,8.01775074005127,-4.033102512359619
1764634061644403700,7.32240380859375,-2.754138946533203,8.309076309204102,-3.655036687850952
1764634061661150000,7.33914990234375,-2.816950559616089,8.447860717773438,-3.449253797531128
1764634061677896700,7.355896728515625,-2.778067111968994,8.730213165283203,-2.5022943019866943
1764634061694642400,7.372642333984375,-2.740380048751831,9.017950057983398,-1.975873351097107
1764634061711406300,7.38940625,-2.492722988128662,8.927620887756348,-2.617149829864502
1764634061728129000,7.40612890625,-2.373081922531128,8.635697364807129,-3.2919256687164307
1764634061744892200,7.42289208984375,-2.469393014907837,8.707481384277344,-3.4307093620300293
1764634061761628700,7.439628662109375,-2.6668007373809814,8.769096374511719,-3.597010612487793
1764634061778375400,7.45637548828125,-2.093719720840454,8.86660385131836,-3.607778310775757
1764634061795121400,7.473121337890625,-1.6528422832489014,8.752944946289062,-3.747758388519287
1764634061811868700,7.48986865234375,-1.2699905633926392,8.662615776062012,-3.744169235229492
1764634061828614400,7.506614501953125,-1.0402796268463135,8.682954788208008,-3.6777684688568115
1764634061845361400,7.523361328125,-1.1934202909469604,8.682356834411621,-3.7154552936553955
1764634061862092000,7.540092041015625,-1.466800332069397,8.772686004638672,-3.8297126293182373
1764634061878854400,7.5568544921875,-1.2951152324676514,8.763114929199219,-4.040280818939209
1764634061895600400,7.573600341796875,-0.9505487680435181,8.749954223632812,-4.040879249572754
1764634061912332000,7.59033203125,-0.5527420043945312,8.602795600891113,-3.99900484085083
1764634061929093400,7.60709326171875,-0.6658028960227966,8.415556907653809,-4.022933006286621
1764634061945840400,7.62384033203125,-1.3728820085525513,8.26540756225586,-4.155136585235596
1764634061962624500,7.64062451171875,-2.2331018447875977,8.229515075683594,-4.086342811584473
1764634061979346000,7.657345947265625,-2.874378204345703,8.323433876037598,-3.855435371398926
1764634061996092200,7.674092041015625,-3.098705291748047,8.346763610839844,-3.6538400650024414
1764634062012823000,7.690822998046875,-3.1441688537597656,8.116454124450684,-3.4534413814544678
1764634062029572400,7.707572265625,-3.1788649559020996,7.714460372924805,-3.363112211227417
1764634062046319400,7.7243193359375,-3.7698919773101807,7.459026336669922,-3.404986619949341
1764634062063065300,7.7410654296875,-3.9451663494110107,7.410571575164795,-3.1274192333221436
1764634062079812000,7.75781201171875,-3.4857444763183594,7.349554538726807,-3.047259569168091
1764634062096558000,7.77455810546875,-2.321636199951172,6.97986364364624,-3.394218921661377
1764634062113317000,7.791317138671875,-0.9744769930839539,6.500102519989014,-3.64127779006958
1764634062130050600,7.808050537109375,0.22911277413368225,6.192026615142822,-3.40079927444458
1764634062146811000,7.824810791015625,1.0199406147003174,6.0508503913879395,-3.1489546298980713
1764634062163552000,7.841552001953125,1.210768222808838,6.276373863220215,-2.7523441314697266
1764634062180292000,7.8582919921875,0.9768698215484619,6.113063812255859,-3.1106693744659424
1764634062197049900,7.8750498046875,1.140179991722107,6.099305152893066,-2.9341988563537598
1764634062213777700,7.891777587890625,2.237887382507324,5.853442192077637,-2.7074787616729736
1764634062230533600,7.90853369140625,3.7429728507995605,5.5034918785095215,-2.4053850173950195
1764634062247277000,7.925277099609375,5.037489891052246,5.196014404296875,-2.2983062267303467
1764634062264019000,7.94201904296875,4.798207759857178,5.353342533111572,-1.8628123998641968
1764634062280774000,7.95877392578125,4.387838363647461,5.36650276184082,-1.4506487846374512
1764634062297516000,7.97551611328125,4.882554531097412,5.377869129180908,-0.7154539823532104
1764634062314259500,7.992259521484375,5.933003902435303,5.0356950759887695,-0.5605186820030212
1764634062331013000,8.00901318359375,6.729813575744629,4.679164886474609,-0.529412031173706
1764634062347755800,8.025755859375,6.661019802093506,4.43031120300293,-0.36670008301734924
1764634062364498000,8.042497802734376,6.726822853088379,4.028316974639893,-0.07537391036748886
1764634062381253000,8.059253173828125,6.940980434417725,3.5306098461151123,-0.2105683982372284
1764634062397976000,8.07597607421875,7.494320392608643,3.116053342819214,-0.26919254660606384
1764634062414745600,8.09274560546875,8.206185340881348,2.744567632675171,0.04426721855998039
1764634062431488000,8.109488037109376,9.146564483642578,2.6039891242980957,0.7543373107910156
1764634062448235000,8.126235107421875,9.669994354248047,2.4951157569885254,1.1066805124282837
1764634062464980700,8.142980712890624,10.082158088684082,2.400599241256714,1.2394821643829346
1764634062481728000,8.15972802734375,10.14616584777832,2.4538395404815674,2.042872428894043
1764634062498473700,8.1764736328125,10.51226806640625,2.38265323638916,2.65842604637146
1764634062515220500,8.193220458984374,11.355737686157227,2.2271196842193604,2.833101987838745
1764634062531967200,8.20996728515625,11.94197940826416,2.1332013607025146,3.486940860748291
1764634062548714000,8.2267138671875,12.282358169555664,1.9812572002410889,3.4857444763183594
1764634062565459700,8.243459716796876,12.035299301147461,1.9615163803100586,4.016951084136963
1764634062582204400,8.260204345703125,12.19502067565918,1.82273268699646,4.092923164367676
1764634062598966000,8.276966064453125,12.8087797164917,1.7383856773376465,4.560121536254883
1764634062615696400,8.2936962890625,12.385250091552734,1.4213366508483887,4.369892120361328
1764634062632445700,8.31044580078125,11.191829681396484,1.0923235416412354,4.1760735511779785
1764634062649192400,8.3271923828125,9.960124015808105,0.7824530005455017,4.092324733734131
1764634062665938700,8.343938720703125,10.063015937805176,0.48574298620224,4.163511276245117
1764634062682685700,8.360685791015625,11.691929817199707,0.275174617767334,4.518247127532959
1764634062699431400,8.377431396484376,12.812368392944336,0.22552353143692017,4.845465660095215
1764634062716176400,8.39417626953125,12.850653648376465,0.24526432156562805,4.840680122375488
1764634062732921600,8.410921630859375,11.520842552185059,0.11665010452270508,4.4614176750183105
1764634062749671400,8.42767138671875,9.900901794433594,-0.07477571070194244,4.36391019821167
1764634062766417400,8.44441748046875,9.013164520263672,-0.19202402234077454,4.628915309906006
1764634062783164400,8.461164306640624,8.880961418151855,-0.2069791555404663,5.188836097717285
1764634062799910400,8.477910400390625,9.026325225830078,-0.22073788940906525,5.79063081741333
1764634062816657700,8.49465771484375,9.275776863098145,-0.12442677468061447,6.292525291442871
1764634062833404000,8.51140380859375,9.68794059753418,-0.2189432680606842,6.310471534729004
1764634062850134800,8.528134765625,9.947562217712402,-0.529412031173706,5.893522262573242
1764634062866897000,8.54489697265625,9.704092025756836,-0.6783652305603027,5.6069817543029785
1764634062883643400,8.561643310546875,9.42772102355957,-0.6693921089172363,6.052046775817871
1764634062900389400,8.578389404296875,9.041280746459961,-0.5653043389320374,6.607779502868652
1764634062917134000,8.595134033203125,8.803792953491211,-0.6424728631973267,6.957131862640381
1764634062933879300,8.61187939453125,8.876175880432129,-0.714257538318634,7.062416076660156
1764634062950629600,8.628629638671875,8.906085968017578,-0.9200403094291687,6.952346324920654
1764634062967375400,8.645375244140626,8.940781593322754,-1.1593226194381714,6.760322093963623
1764634062984122000,8.6621220703125,8.644669532775879,-1.2508480548858643,6.608377933502197
1764634063000852700,8.678852783203125,8.228917121887207,-1.3621143102645874,6.369693756103516
1764634063017615400,8.695615478515625,7.899305820465088,-1.4446666240692139,6.208178520202637
1764634063034361300,8.712361328125,7.507481098175049,-1.536790370941162,6.060421466827393
1764634063051108600,8.729108642578124,7.129415035247803,-1.5619150400161743,6.0472612380981445
1764634063067854800,8.745854736328125,6.939185619354248,-1.5481562614440918,6.420541286468506
1764634063084601600,8.7626015625,7.049853801727295,-1.4518451690673828,6.783652305603027
1764634063101347000,8.77934716796875,7.203592777252197,-1.5469598770141602,6.768697261810303
1764634063118110000,8.79610986328125,7.39561653137207,-1.7186448574066162,6.582056999206543
1764634063134834700,8.812834716796875,7.35314416885376,-1.8436698913574219,6.467201232910156
1764634063151600400,8.829600341796874,7.115057945251465,-1.906481385231018,6.668198585510254
1764634063168356900,8.84635693359375,7.0199432373046875,-1.8346967697143555,7.0654072761535645
1764634063185092600,8.863092529296875,7.173084259033203,-1.6809579133987427,7.409375190734863
1764634063201824000,8.879823974609375,7.65583610534668,-1.5936198234558105,7.704888820648193
1764634063218570000,8.896570068359376,8.429315567016602,-1.3854442834854126,7.7940216064453125
1764634063235319000,8.913319091796875,8.782855987548828,-1.322034478187561,7.755138397216797
1764634063252066000,8.930066162109375,8.986844062805176,-1.1682956218719482,7.668996810913086
1764634063268811800,8.946811767578126,8.9581298828125,-1.1012966632843018,7.788637638092041
1764634063285555500,8.963555419921875,8.900103569030762,-0.9774680733680725,7.960920810699463
1764634063302308600,8.98030859375,8.981459617614746,-0.9290133714675903,8.11824893951416
1764634063319060700,8.997060791015626,8.775676727294922,-0.98703932762146,7.927421569824219
1764634063335782400,9.013782470703125,8.736793518066406,-1.058824062347412,7.612166881561279
1764634063352545300,9.030545166015624,8.550153732299805,-1.1694921255111694,7.215556621551514
1764634063369299200,9.04729931640625,8.598010063171387,-1.303490161895752,6.832705020904541
1764634063386032000,9.0640322265625,8.669196128845215,-1.3226326704025269,6.507879257202148
1764634063402793700,9.080793701171874,8.998209953308105,-1.317248821258545,6.296712875366211
1764634063419521000,9.09752099609375,9.46181869506836,-1.272383451461792,6.209374904632568
1764634063436276700,9.11427685546875,9.910472869873047,-1.1802598237991333,6.2327046394348145
1764634063453024000,9.13102392578125,10.172487258911133,-1.0217353105545044,6.375676155090332
1764634063469754400,9.14775439453125,10.515857696533203,-0.8051848411560059,6.580262184143066
1764634063486517000,9.16451708984375,11.10329532623291,-0.6071787476539612,6.784848690032959
1764634063503262500,9.181262451171875,11.541780471801758,-0.39062830805778503,7.022934436798096
1764634063520007400,9.19800732421875,11.721839904785156,-0.040677983313798904,7.3292155265808105
1764634063536769300,9.214769287109375,11.557332992553711,0.1698904037475586,7.368099212646484
1764634063553515300,9.231515380859374,11.609376907348633,0.3278166949748993,7.463213920593262
1764634063570243000,9.2482431640625,11.867801666259766,0.33798620104789734,7.5535430908203125
1764634063587008500,9.265008544921875,12.029317855834961,0.41515472531318665,7.505686283111572
1764634063603750400,9.28175048828125,11.49093246459961,0.7010970115661621,7.225128173828125
1764634063620471000,9.298470947265624,10.685149192810059,0.8135597109794617,6.9068827629089355
1764634063637234400,9.315234375,10.478170394897461,0.9134600162506104,6.582056999206543
1764634063653982000,9.33198193359375,10.672587394714355,0.9188438653945923,5.974279880523682
1764634063670727700,9.348727783203126,10.723434448242188,0.8949156403541565,5.309673309326172
1764634063687474700,9.365474609375,10.520044326782227,0.9996016621589661,4.837090969085693
1764634063704220400,9.382220458984374,10.092328071594238,1.2759727239608765,4.800002098083496
1764634063720970000,9.398969970703124,9.745368003845215,1.6193426847457886,4.83469820022583
1764634063737713700,9.415713623046875,9.349356651306152,1.9824535846710205,4.701896667480469
1764634063754461000,9.4324609375,9.32303524017334,2.1020946502685547,4.100101470947266
1764634063771206400,9.449206298828125,9.276374816894531,2.307279348373413,3.459423303604126
1764634063787953400,9.465953369140625,8.58604621887207,2.4155545234680176,3.0933215618133545
1764634063804699600,9.48269970703125,8.482556343078613,2.640479803085327,2.6488547325134277
1764634063821446400,9.4994462890625,8.173882484436035,2.8977081775665283,2.5160529613494873
1764634063838192400,9.5161923828125,7.152146816253662,3.1250264644622803,2.2127628326416016
1764634063854939400,9.532939453125,6.622735023498535,3.4438700675964355,1.8221344947814941
1764634063871685400,9.549685302734375,5.873183250427246,3.7052857875823975,1.3746765851974487
1764634063888432600,9.5664326171875,5.1427741050720215,3.9326040744781494,0.8027920126914978
1764634063905175300,9.58317529296875,4.369294166564941,4.117449760437012,0.2021935135126114
1764634063921922800,9.5999228515625,3.486342668533325,4.478765964508057,0.09930214285850525
1764634063938684400,9.616684326171875,3.4097721576690674,5.042873859405518,0.1381855010986328
1764634063955431400,9.633431396484376,3.535395383834839,5.478965759277344,0.06699903309345245
1764634063972168700,9.650168701171875,3.476173162460327,5.555535793304443,-0.3966103494167328
1764634063988906000,9.666906005859374,2.8139593601226807,5.630311489105225,-0.9978070259094238
1764634064005672700,9.683672607421874,2.2127628326416016,5.853442192077637,-1.5170495510101318
1764634064022399500,9.7003994140625,1.4727823734283447,6.200401782989502,-1.7587246894836426
1764634064039149600,9.717149658203125,0.6167500615119934,6.6149582862854,-2.1104695796966553
1764634064055897000,9.73389697265625,0.5605186820030212,6.935596466064453,-2.42093825340271
1764634064072643000,9.75064306640625,1.1288141012191772,7.04207706451416,-2.531606435775757
1764634064089390300,9.767390380859375,0.5635097622871399,7.160521984100342,-2.520838737487793
1764634064106133200,9.78413330078125,-0.21714866161346436,7.277770042419434,-2.6051857471466064
1764634064122867000,9.800866943359376,-1.191625714302063,7.6911301612854,-2.554338216781616
1764634064139612200,9.817612060546875,-1.6863417625427246,7.977072715759277,-2.462214469909668
1764634064156375300,9.834375244140626,-2.018345832824707,8.277970314025879,-2.4807589054107666
1764634064173120300,9.851120361328125,-2.000998020172119,8.526823043823242,-2.3509483337402344
1764634064189856000,9.86785595703125,-1.9022940397262573,8.718847274780273,-2.341377019882202
1764634064206608600,9.884608642578126,-1.6648063659667969,8.877371788024902,-2.5525436401367188
1764634064223362000,9.901362060546875,-0.8488538265228271,9.047262191772461,-2.6494529247283936
1764634064240098300,9.918098388671876,-0.48514479398727417,9.04845905303955,-2.6362924575805664
1764634064256858000,9.934858154296874,-0.6430711150169373,9.05264663696289,-2.616551637649536
1764634064273600800,9.951600830078124,-0.7160521745681763,9.215357780456543,-2.6117658615112305
1764634064290336300,9.968336181640625,-0.16271193325519562,9.374481201171875,-2.5842485427856445
1764634064307093800,9.98509375,0.1010967567563057,9.232108116149902,-2.8139593601226807
1764634064323841300,10.00184130859375,-0.12382857501506805,9.101698875427246,-3.1004998683929443
1764634064340584200,10.018584228515625,-0.43908295035362244,9.038887977600098,-3.152543783187866
1764634064357358300,10.0353583984375,-0.8739784955978394,9.042476654052734,-3.1561331748962402
1764634064374068500,10.052068359375,-1.0648061037063599,9.003593444824219,-3.1561331748962402
1764634064390836200,10.068836181640625,-0.9834501147270203,8.984451293945312,-3.084348440170288
1764634064407556400,10.085556396484375,-1.155135154724121,8.964710235595703,-2.974278450012207
1764634064424316700,10.102316650390625,-1.2556337118148804,8.935996055603027,-2.988037347793579
1764634064441066000,10.11906591796875,-1.2317054271697998,8.926424980163574,-3.064607620239258
1764634064457812700,10.135812744140624,-1.059422254562378,8.974879264831543,-3.0029923915863037
1764634064474558700,10.152558837890625,-1.0462616682052612,9.046664237976074,-3.136990547180176
1764634064491306000,10.169305908203125,-0.6789634227752686,9.162715911865234,-3.0514471530914307
1764634064508051700,10.1860517578125,-0.16271193325519562,9.230911254882812,-2.98085880279541
1764634064524814800,10.20281494140625,0.11006984114646912,9.17886734008789,-3.0245277881622314
1764634064541557800,10.219557861328125,0.06340979784727097,9.05444049835205,-3.067598581314087
1764634064558286300,10.236286376953124,-0.5156532526016235,9.038289070129395,-3.1334011554718018
1764634064575050500,10.253050537109376,-1.1994023323059082,9.017352104187012,-3.2608189582824707
1764634064591794400,10.26979443359375,-1.734796404838562,8.953344345092773,-3.297907829284668
1764634064608547600,10.286547607421875,-1.9154545068740845,8.900702476501465,-3.211766242980957
1764634064625274400,10.3032744140625,-1.866999864578247,8.790632247924805,-3.1686954498291016
1764634064642022400,10.3200224609375,-1.8891334533691406,8.569893836975098,-3.163909673690796
1764634064658772000,10.33677197265625,-2.0793628692626953,8.46461009979248,-3.2165517807006836
1764634064675517000,10.353516845703124,-2.1361923217773438,8.478368759155273,-2.9964120388031006
1764634064692263700,10.370263671875,-1.9974087476730347,8.46461009979248,-3.005983352661133
1764634064709009700,10.387009765625,-1.43389892578125,8.538188934326172,-2.8929226398468018
1764634064725753000,10.403753173828125,-0.7974081635475159,8.544769287109375,-2.7936203479766846
1764634064742506200,10.42050634765625,-0.3086741268634796,8.426324844360352,-2.8187451362609863
1764634064759243800,10.437243896484375,-0.29790642857551575,8.277970314025879,-2.833101987838745
1764634064775995600,10.45399560546875,-0.4833501875400543,8.205587387084961,-2.713460922241211
1764634064792740900,10.470740966796875,-0.6269195079803467,8.214560508728027,-2.6321048736572266
1764634064809486300,10.487486328125,-0.20937198400497437,8.091329574584961,-2.575275421142578
1764634064826239500,10.504239501953125,0.5330012440681458,7.959724426269531,-2.496312141418457
1764634064842977500,10.5209775390625,1.2047861814498901,7.727022647857666,-2.4119651317596436
1764634064859732200,10.537732177734375,1.5655041933059692,7.51286506652832,-2.3503501415252686
1764634064876470800,10.554470703125,1.6432709693908691,7.3645100593566895,-2.355733871459961
1764634064893223700,10.5712236328125,1.1371889114379883,7.252645492553711,-2.197209358215332
1764634064909974800,10.587974853515625,1.1300104856491089,7.0995049476623535,-1.843071699142456
1764634064926730500,10.60473046875,2.1122641563415527,7.0307111740112305,-1.444068431854248
1764634064943468300,10.62146826171875,3.242872953414917,6.780063152313232,-1.5565310716629028
1764634064960224500,10.638224609375,3.5928232669830322,6.69990348815918,-1.3710874319076538
1764634064976966400,10.65496630859375,4.106681823730469,6.605386734008789,-0.9230313301086426
1764634064993712000,10.671712158203125,4.529613494873047,6.477370738983154,-0.5030909776687622
1764634065010456000,10.6884560546875,4.920241355895996,6.095715522766113,-0.48095735907554626
1764634065027195000,10.70519482421875,4.993222713470459,6.000002861022949,-0.3086741268634796
1764634065043939000,10.72193896484375,4.493122577667236,5.7786664962768555,-0.24107688665390015
1764634065060686300,10.738686279296875,4.677968502044678,5.449055194854736,-0.20338992774486542
1764634065077428500,10.755428466796875,5.8821563720703125,4.901697158813477,-0.40737804770469666
1764634065094183200,10.77218310546875,7.396812915802002,4.441677093505859,-0.597607433795929
1764634065110925300,10.78892529296875,7.33759069442749,4.144967079162598,-0.2392822653055191
1764634065127672300,10.80567236328125,6.288936138153076,4.022335052490234,0.5515456199645996
1764634065144418600,10.82241845703125,6.114858150482178,3.9834516048431396,1.5224334001541138
1764634065161150500,10.839150390625,8.1224365234375,3.7980077266693115,2.1583259105682373
1764634065177828600,10.85582861328125,10.624731063842773,3.6807594299316406,2.2337000370025635
1764634065194658000,10.872657958984375,11.58963680267334,3.6113674640655518,1.7012969255447388
1764634065211402800,10.88940283203125,10.982458114624023,3.55214524269104,1.6115660667419434
1764634065228152600,10.906152587890626,10.285548210144043,3.4785659313201904,1.7563318014144897
1764634065244897000,10.92289697265625,10.171290397644043,3.363112211227417,1.5750755071640015
1764634065261643800,10.939643798828126,10.066604614257812,3.315255880355835,1.7234305143356323
1764634065278386400,10.956386474609374,10.126425743103027,3.152543783187866,2.1439690589904785
1764634065295141000,10.97314111328125,10.558928489685059,3.1345977783203125,2.8217360973358154
1764634065311883000,10.989883056640625,10.50927734375,2.809173822402954,2.940778970718384
1764634065328629200,11.006629150390625,10.499107360839844,2.444866418838501,3.332603693008423
1764634065345376300,11.023376220703126,11.157134056091309,2.1882362365722656,3.4408788681030273
1764634065362139600,11.0401396484375,11.685349464416504,1.9316060543060303,3.5204403400421143
1764634065378881800,11.0568818359375,12.106486320495605,1.82273268699646,3.414557933807373
1764634065395628800,11.07362890625,11.596217155456543,1.7012969255447388,3.4677982330322266
1764634065412375600,11.09037548828125,10.832307815551758,1.5936198234558105,3.5461630821228027
1764634065429122000,11.1071220703125,10.504491806030273,1.2867404222488403,3.4845480918884277
1764634065445863000,11.12386279296875,10.569097518920898,0.9756734371185303,3.493520975112915
1764634065462603300,11.140603271484375,10.725229263305664,0.6454638838768005,3.5982069969177246
1764634065479348000,11.157347900390626,10.268199920654297,0.4289134442806244,3.6945180892944336
1764634065496095200,11.17409521484375,9.55753231048584,0.24047867953777313,3.834498405456543
1764634065512837000,11.190837158203125,9.745368003845215,0.19322042167186737,4.240679740905762
1764634065529591800,11.207591796875,10.535597801208496,0.1950150430202484,4.53499698638916
1764634065546333700,11.224333740234375,11.176874160766602,0.053240302950143814,4.3758745193481445
1764634065563093500,11.241093505859375,10.789237022399902,-0.11545369029045105,3.8745779991149902
1764634065579846700,11.2578466796875,9.732806205749512,-0.22372891008853912,3.652045488357544
1764634065596582700,11.274582763671875,8.886942863464355,-0.24526432156562805,3.85483717918396
1764634065613332700,11.291332763671875,8.38684368133545,-0.31824541091918945,4.281357765197754
1764634065630062300,11.308062255859374,8.23130989074707,-0.46719861030578613,4.735994338989258
1764634065646825500,11.324825439453125,8.12961483001709,-0.8410771489143372,4.931607246398926
1764634065663572500,11.341572509765625,8.14636516571045,-1.195214867591858,4.802394866943359
1764634065680318700,11.358318603515626,8.0955171585083,-1.4632110595703125,4.587040901184082
1764634065697049900,11.3750498046875,8.101499557495117,-1.7359927892684937,4.242474555969238
1764634065713798700,11.391798583984375,8.142775535583496,-1.9513468742370605,4.572085857391357
1764634065730546000,11.4085458984375,8.59202766418457,-1.730010747909546,5.173282623291016
1764634065747292000,11.4252919921875,9.200403213500977,-1.709073543548584,5.573482036590576
1764634065764038700,11.44203857421875,9.531808853149414,-1.7700905799865723,5.788238048553467
1764634065780785000,11.458784912109374,9.728618621826172,-1.7886348962783813,6.069394588470459
1764634065797535200,11.47553515625,9.663414001464844,-1.8562321662902832,6.428318023681641
1764634065814290400,11.49229052734375,9.342177391052246,-1.9046868085861206,7.791628837585449
1764634065831038000,11.509037841796875,8.854640007019043,-1.4799607992172241,8.944969177246094
1764634065847783200,11.525783203125,8.394619941711426,-1.332802176475525,9.204590797424316
1764634065864530400,11.542530517578125,8.117650985717773,-1.3818551301956177,9.080761909484863
1764634065881260500,11.559260498046875,8.176275253295898,-1.6157535314559937,8.831908226013184
1764634065898013400,11.576013427734376,8.105088233947754,-1.841277003288269,8.563912391662598
1764634065914756600,11.592756591796874,7.216155052185059,-2.121237277984619,7.944170951843262
1764634065931503900,11.60950390625,6.365506649017334,-2.325225353240967,7.496713161468506
1764634065948252200,11.626252197265625,5.925227165222168,-2.4604198932647705,7.105486869812012
1764634065964996400,11.642996337890626,5.935396671295166,-2.651845693588257,6.703492641448975
1764634065981758700,11.6597587890625,6.218348026275635,-2.861815929412842,6.320641040802002
1764634065998475500,11.6764755859375,6.486343860626221,-3.019144058227539,6.085546016693115
1764634066015248100,11.693248046875,6.596413612365723,-3.047259569168091,5.989234924316406
1764634066031996000,11.709995849609374,6.519843578338623,-3.0185458660125732,6.123831272125244
1764634066048741000,11.7267412109375,6.605985164642334,-2.9180471897125244,6.247660160064697
1764634066065488600,11.743488525390624,6.724429607391357,-2.7690939903259277,6.467799663543701
1764634066082218000,11.760218017578126,6.9684977531433105,-2.5914268493652344,6.921239376068115
1764634066098952000,11.776951904296874,7.695915699005127,-2.5842485427856445,7.024729251861572
1764634066115714300,11.79371435546875,8.240880966186523,-2.6500511169433594,6.894320011138916
1764634066132461600,11.810461669921875,8.173283576965332,-2.606980323791504,6.6939215660095215
1764634066149192000,11.82719189453125,7.824530124664307,-2.761317253112793,6.369693756103516
1764634066165954300,11.843954345703125,7.6630144119262695,-3.116053342819214,5.905486106872559
1764634066182700500,11.860700439453124,7.429714202880859,-3.2889347076416016,5.767300605773926
1764634066199424800,11.8774248046875,7.070790767669678,-3.2709884643554688,5.725426197052002
1764634066216193300,11.894193359375,6.687939167022705,-3.181257724761963,5.855237007141113
1764634066232940500,11.9109404296875,6.429514408111572,-3.067000389099121,6.056832313537598
1764634066249686300,11.927686279296875,6.290730953216553,-2.971287488937378,6.272186279296875
1764634066266433500,11.94443359375,6.26141881942749,-2.7798616886138916,6.640681266784668
1764634066283179500,11.961179443359375,6.246463298797607,-2.617149829864502,7.009175777435303
1764634066299923700,11.977923828125,6.19920539855957,-2.550748825073242,7.22452974319458
1764634066316685600,11.994685546875,6.208776473999023,-2.5698914527893066,7.3052873611450195
1764634066333432800,12.011432861328124,6.290132522583008,-2.617149829864502,7.18086051940918
1764634066350160400,12.028160400390625,6.620940208435059,-2.7553353309631348,7.022336483001709
1764634066366924800,12.0449248046875,7.239484786987305,-2.9210381507873535,7.025327205657959
1764634066383671600,12.061671630859376,7.803592681884766,-2.991028308868408,6.842874526977539
1764634066400417800,12.078417724609375,8.438887596130371,-2.960519790649414,6.726224422454834
1764634066417163500,12.09516357421875,9.184849739074707,-2.8390841484069824,6.877570629119873
1764634066433896400,12.111896484375,9.634101867675781,-2.822932481765747,6.900900363922119
1764634066450654700,12.12865478515625,9.389435768127441,-2.6177480220794678,7.140780925750732
1764634066467404300,12.145404296875,8.641678810119629,-2.155933141708374,7.941180229187012
1764634066484149500,12.1621494140625,8.214560508728027,-1.7736797332763672,8.511270523071289
1764634066500889900,12.178889892578125,8.658429145812988,-1.547558069229126,8.811569213867188
1764634066517643300,12.195643310546876,9.5802640914917,-1.3968101739883423,8.785846710205078
1764634066534389500,12.212389404296875,10.38784122467041,-1.4039887189865112,8.568697929382324
1764634066551117300,12.229117431640624,10.483553886413574,-1.4464613199234009,8.372486114501953
1764634066567882500,12.245882568359375,10.526026725769043,-1.4273186922073364,8.382058143615723
1764634066584629200,12.262629150390625,10.540383338928223,-1.2454642057418823,8.779266357421875
1764634066601359600,12.279359619140624,10.606185913085938,-1.0821540355682373,8.83669376373291
1764634066618109000,12.29610888671875,10.692926406860352,-1.292722463607788,8.535198211669922
1764634066634856000,12.31285595703125,10.837093353271484,-1.532004714012146,8.056035995483398
1764634066651602000,12.329601806640625,11.626127243041992,-1.5343974828720093,8.178668022155762
1764634066668349400,12.346349365234374,12.145369529724121,-1.2454642057418823,8.163712501525879
1764634066685095000,12.363094970703125,11.848061561584473,-1.1653046607971191,8.039883613586426
1764634066701835300,12.379835205078125,11.263614654541016,-1.1186445951461792,8.031509399414062
1764634066718588200,12.396588134765626,10.825727462768555,-0.8039883971214294,7.932805061340332
1764634066735334400,12.41333447265625,10.53918743133545,-0.3696911036968231,7.618149280548096
1764634066752081200,12.4300810546875,10.613365173339844,-0.14895321428775787,7.307680130004883
1764634066768827600,12.44682763671875,10.797612190246582,0.004785645287483931,6.948757171630859
1764634066785563600,12.463563720703124,10.642078399658203,0.11904292553663254,6.580860614776611
1764634066802322200,12.480322265625,10.055238723754883,0.34217363595962524,5.913262844085693
1764634066819067100,12.497067138671875,9.349356651306152,0.4169493317604065,5.135595798492432
1764634066835814700,12.513814697265625,8.745168685913086,0.5108676552772522,4.969892501831055
1764634066852545300,12.530545166015624,8.376673698425293,1.0510473251342773,4.694119930267334
1764634066869307100,12.54730712890625,8.136195182800293,0.8871390223503113,3.699902057647705
1764634066886052600,12.564052490234374,7.657630443572998,1.1635099649429321,2.788236618041992
1764634066902797300,12.58079736328125,6.955935478210449,1.4488540887832642,2.4598217010498047
1764634066919539700,12.597539794921875,6.233901023864746,1.805384635925293,1.6588243246078491
1764634066936306200,12.61430615234375,5.7649078369140625,2.1918256282806396,1.038485050201416
1764634066953021700,12.631021728515625,5.292325496673584,2.6739792823791504,1.155135154724121
1764634066969781500,12.647781494140625,4.751547336578369,3.294916868209839,0.9798609018325806
1764634066986516500,12.6645166015625,4.214358806610107,3.8727834224700928,0.5084748268127441
1764634067003278600,12.681278564453125,3.7872400283813477,4.517649173736572,0.06520441919565201
1764634067020014300,12.698014404296876,3.8536407947540283,4.924428939819336,-0.5222335457801819
1764634067036771600,12.714771484375,3.308077335357666,5.253442287445068,-1.3381860256195068
1764634067053522000,12.73152197265625,2.9796624183654785,5.654240131378174,-1.3232308626174927
1764634067070278000,12.74827783203125,2.56510591506958,6.223133563995361,-1.0301101207733154
1764634067087023400,12.7650234375,2.5088746547698975,6.768697261810303,-0.7088736891746521
1764634067103770400,12.781770263671875,2.4915266036987305,7.10847806930542,-0.7896314859390259
1764634067120506400,12.79850634765625,2.355733871459961,7.246663570404053,-1.0139585733413696
1764634067137263600,12.815263671875,1.7856439352035522,7.336394309997559,-1.098903775215149
1764634067153991000,12.831990966796875,0.8949156403541565,7.453044414520264,-1.1252248287200928
1764634067170740500,12.848740478515625,0.35832518339157104,7.561917781829834,-1.2436695098876953
1764634067187492400,12.865492431640625,-0.34636107087135315,7.636693477630615,-1.4715858697891235
1764634067204236500,12.882236572265626,-1.3094722032546997,7.777271747589111,-1.8083757162094116
1764634067220980700,12.898980712890625,-1.7222341299057007,7.943572998046875,-1.9172492027282715
1764634067237715700,12.9157158203125,-1.9208383560180664,8.124829292297363,-2.0985054969787598
1764634067254475300,12.932475341796875,-1.6689938306808472,8.288139343261719,-2.1990039348602295
1764634067271221200,12.94922119140625,-1.3872389793395996,8.370692253112793,-2.1230318546295166
1764634067287979800,12.965979736328125,-1.4207384586334229,8.432905197143555,-2.017747640609741
1764634067304710000,12.9827099609375,-1.4404792785644531,8.557332038879395,-2.0033907890319824
1764634067321461000,12.9994609375,-1.4135600328445435,8.763114929199219,-1.9555343389511108
1764634067338190800,13.01619091796875,-1.5637096166610718,8.997013092041016,-1.8400806188583374
1764634067354962000,13.0329619140625,-1.913659930229187,9.197412490844727,-1.6815561056137085
1764634067371699500,13.049699462890626,-2.1672990322113037,9.292527198791504,-1.3698909282684326
1764634067388449300,13.06644921875,-1.810170292854309,9.57607650756836,-1.1270195245742798
1764634067405194200,13.0831943359375,-1.3334003686904907,9.711270332336426,-1.2616157531738281
1764634067421937000,13.09993701171875,-0.8632107973098755,9.640682220458984,-1.0666006803512573
1764634067438690600,13.116690673828124,-0.6478567123413086,9.545567512512207,-1.2011969089508057
1764634067455450000,13.1334501953125,-0.8249256014823914,9.449256896972656,-1.425524115562439
1764634067472191200,13.150191162109374,-1.0211371183395386,9.486943244934082,-1.439282774925232
1764634067488921900,13.166921875,-0.8632107973098755,9.473184585571289,-1.5355939865112305
1764634067505684200,13.183684326171875,-0.5186443328857422,9.383454322814941,-1.5744773149490356
1764634067522402600,13.200402587890625,-0.24586252868175507,9.403194427490234,-1.4793626070022583
1764634067539183600,13.21718359375,-0.24107688665390015,9.441479682922363,-1.3214362859725952
1764634067555925000,13.233925048828125,-0.5515456199645996,9.393025398254395,-1.373480200767517
1764634067572675800,13.25067578125,-1.0390832424163818,9.329017639160156,-1.5589239597320557
1764634067589415200,13.267415283203125,-1.4177473783493042,9.342177391052246,-1.7491533756256104
1764634067606164700,13.284164794921875,-1.6103696823120117,9.380462646484375,-2.026122570037842
1764634067622888200,13.30088818359375,-1.1994023323059082,9.41037368774414,-2.046461582183838
1764634067639647000,13.31764697265625,-0.5910272002220154,9.363713264465332,-1.9854445457458496
1764634067656391400,13.334391357421875,-0.34217363595962524,9.306883811950684,-2.0243279933929443
1764634067673138000,13.351137939453125,-0.3032902777194977,9.29312515258789,-1.9381862878799438
1764634067689869000,13.367869140625,-0.33738797903060913,9.340383529663086,-1.8759729862213135
1764634067706631700,13.384631591796875,-0.3696911036968231,9.282955169677734,-1.770688772201538
1764634067723377200,13.401377197265624,-0.48394837975502014,9.17288589477539,-1.7994025945663452
1764634067740124200,13.418124267578126,-0.8374879360198975,9.133403778076172,-1.7365909814834595
1764634067756864500,13.434864501953125,-1.1437692642211914,9.161520004272461,-1.7120646238327026
1764634067773626000,13.451626220703124,-1.0378868579864502,9.137591361999512,-1.6115660667419434
1764634067790376700,13.468376708984374,-0.7734799385070801,8.975478172302246,-1.5744773149490356
1764634067807123500,13.48512353515625,-0.45583271980285645,8.770891189575195,-1.5272190570831299
1764634067823864000,13.501864013671875,-0.4737788736820221,8.59322452545166,-1.4847464561462402
1764634067840604700,13.518604736328125,-0.7310073375701904,8.525627136230469,-1.4506487846374512
1764634067857349400,13.535349365234374,-0.8793623447418213,8.554341316223145,-1.397408366203308
1764634067874096000,13.55209619140625,-0.664606511592865,8.598010063171387,-1.350150227546692
1764634067890842400,13.56884228515625,0.20877377688884735,8.361120223999023,-1.074975609779358
1764634067907586800,13.5855869140625,1.34476637840271,8.067401885986328,-1.0683952569961548
1764634067924337700,13.602337646484376,2.3264217376708984,7.850253105163574,-1.2239288091659546
1764634067941088300,13.619088134765626,2.0656042098999023,7.533204078674316,-1.319043517112732
1764634067957841400,13.63584130859375,1.7742780447006226,7.408178806304932,-1.6007983684539795
1764634067974584000,13.652583984375,1.540379524230957,7.28255558013916,-1.638485312461853
1764634067991338200,13.669338134765624,2.121835470199585,6.911069869995117,-1.7120646238327026
1764634068008078800,13.686078857421874,2.7595226764678955,6.673582553863525,-0.13100704550743103
1764634068024827000,13.702826904296876,2.6572296619415283,6.6831536293029785,0.8063812255859375
1764634068041553200,13.71955322265625,2.650649309158325,6.404987812042236,-0.5132604837417603
1764634068058312000,13.73631201171875,1.7084753513336182,5.5692949295043945,-1.272383451461792
1764634068075041300,13.753041259765626,1.0965110063552856,4.883152961730957,-1.5726827383041382
1764634068091800000,13.769800048828126,1.7611174583435059,4.291527271270752,-1.551147222518921
1764634068108545300,13.786545166015625,3.5204403400421143,4.167100429534912,-0.46480581164360046
1764634068125294600,13.803294677734375,5.773283004760742,3.896113395690918,0.4905286431312561
1764634068142039800,13.820039794921875,7.848458290100098,3.390031576156616,0.6287141442298889
1764634068158786300,13.836786376953125,8.672187805175781,3.0616166591644287,0.062213387340307236
1764634068175533000,13.853532958984376,8.775078773498535,2.885145902633667,0.38225340843200684
1764634068192278000,13.870278076171875,9.038887977600098,3.0580272674560547,1.0462616682052612
1764634068209027000,13.887027099609375,9.92841911315918,3.218944549560547,1.6420745849609375
1764634068225757200,13.903757080078124,10.531410217285156,3.1585259437561035,1.4638092517852783
1764634068242522600,13.920522705078126,10.709675788879395,2.9862427711486816,1.6211373805999756
1764634068259261200,13.93726123046875,11.252248764038086,2.8971099853515625,2.0452651977539062
1764634068276032300,13.9540322265625,11.800803184509277,2.6213371753692627,2.3641088008880615
1764634068292771000,13.97077099609375,12.710674285888672,2.537588357925415,2.5052852630615234
1764634068309518300,13.987518310546875,12.991830825805664,2.5764718055725098,2.3473589420318604
1764634068326263800,14.004263916015624,11.941381454467773,2.4777679443359375,2.593221426010132
1764634068343011000,14.021010986328125,11.541181564331055,2.376072883605957,3.0101709365844727
1764634068359757300,14.03775732421875,12.094522476196289,2.042872428894043,3.0418758392333984
1764634068376503600,14.054503662109376,12.63589859008789,1.953141450881958,3.159722328186035
1764634068393250300,14.071250244140625,12.948760032653809,1.7102699279785156,3.1926236152648926
1764634068409978400,14.087978271484374,12.829716682434082,1.604387640953064,3.005983352661133
1764634068426742500,14.104742431640625,11.959925651550293,1.4009976387023926,2.754737138748169
1764634068443495000,14.121494873046874,11.101500511169434,1.1252248287200928,2.746960401535034
1764634068460231200,14.138231201171875,11.026126861572266,0.9098708033561707,2.6273193359375
1764634068476981200,14.154981201171875,10.932208061218262,0.7465606927871704,2.7517459392547607
1764634068493722600,14.17172265625,10.714461326599121,0.5545366406440735,2.8522446155548096
1764634068510482400,14.188482421875,10.76830005645752,0.43489551544189453,3.0861430168151855
1764634068527218700,14.20521875,10.965707778930664,0.22971096634864807,2.9180471897125244
1764634068543964200,14.221964111328125,10.846665382385254,0.04247260093688965,2.5118656158447266
1764634068560720000,14.238719970703125,10.077372550964355,-0.16510476171970367,2.307877540588379
1764634068577452300,14.255452392578125,8.869595527648926,-0.32662028074264526,2.5112674236297607
1764634068594204200,14.2722041015625,7.934599876403809,-0.3194418251514435,3.311666488647461
1764634068610942700,14.288942626953125,7.817351341247559,-0.3966103494167328,4.0145583152771
1764634068627674600,14.305674560546874,8.186444282531738,-0.49591249227523804,4.037888050079346
1764634068644434700,14.3224345703125,8.2695951461792,-0.7926225066184998,3.7124643325805664
1764634068661181000,14.339180908203126,8.342576026916504,-0.9409775137901306,3.841078519821167
1764634068677905000,14.35590478515625,8.22413158416748,-0.8739784955978394,4.381856441497803
1764634068694677800,14.372677734375,8.087740898132324,-0.9224331378936768,5.084748268127441
1764634068711421000,14.3894208984375,8.399405479431152,-0.7776673436164856,5.696114540100098
1764634068728151600,14.406151611328125,8.567501068115234,-0.7674978375434875,6.011368751525879
1764634068744910000,14.42291015625,8.883354187011719,-0.8578268885612488,5.91924524307251
1764634068761666800,14.439666748046875,9.353543281555176,-1.1198409795761108,5.674578666687012
1764634068778401000,14.456401123046875,9.65683364868164,-1.3052847385406494,5.816951751708984
1764634068795165400,14.47316552734375,9.78245735168457,-1.2287144660949707,6.347560405731201
1764634068811908900,14.489908935546875,9.376275062561035,-1.129412293434143,6.764509677886963
1764634068828644900,14.506644775390624,8.883952140808105,-1.140179991722107,6.817749977111816
1764634068845407700,14.52340771484375,8.773882865905762,-1.1599208116531372,6.914061069488525
1764634068862150000,14.54014990234375,8.769695281982422,-1.1599208116531372,7.0857462882995605
1764634068878897200,14.556897216796875,8.738588333129883,-1.2699905633926392,7.506882667541504
1764634068895649300,14.573649169921875,8.522636413574219,-1.1700903177261353,7.664809226989746
1764634068912392000,14.590391845703126,8.040482521057129,-1.2526426315307617,7.541578769683838
1764634068929118700,14.60711865234375,7.667799949645996,-1.4739787578582764,7.097710132598877
1764634068945880000,14.623880126953125,7.529614448547363,-1.685145378112793,6.6484575271606445
1764634068962635500,14.640635498046874,7.3292155265808105,-1.8245272636413574,6.486343860626221
1764634068979377200,14.657377197265625,6.961917400360107,-1.9692929983139038,6.400800704956055
1764634068996123400,14.674123291015626,6.696314334869385,-2.2091734409332275,6.434898376464844
1764634069012866300,14.6908662109375,6.768098831176758,-2.2091734409332275,6.496513366699219
1764634069029621000,14.70762109375,6.9068827629089355,-2.1607189178466797,6.616154670715332
1764634069046363600,14.72436376953125,7.237092018127441,-2.207977056503296,6.571887493133545
1764634069063105000,14.74110498046875,7.558328628540039,-2.268994092941284,6.772286415100098
1764634069079855600,14.757855712890626,7.730013370513916,-2.1056840419769287,7.101897716522217
1764634069096591600,14.774591552734375,7.672585964202881,-1.9956140518188477,7.345965385437012
1764634069113342700,14.7913427734375,7.533802032470703,-1.953141450881958,7.465606689453125
1764634069130083600,14.80808349609375,7.1988067626953125,-1.95852530002594,7.408777236938477
1764634069146821400,14.8248212890625,6.710072994232178,-1.8741782903671265,7.2335028648376465
1764634069163581400,14.84158154296875,6.317649841308594,-1.8610178232192993,7.191030025482178
1764634069180322300,14.858322265625,6.208178520202637,-1.908874273300171,7.249056339263916
1764634069197068300,14.875068359375,6.237490653991699,-1.932802438735962,7.368099212646484
1764634069213812500,14.8918125,6.2566328048706055,-1.9663020372390747,7.301100254058838
1764634069230564400,14.908564453125,6.185446739196777,-2.090728759765625,7.062416076660156
1764634069247308300,14.925308349609375,6.204588890075684,-2.210369825363159,6.823133945465088
1764634069264070100,14.942070068359374,6.4354963302612305,-2.358126640319824,6.774679183959961
1764634069280798000,14.9587978515625,6.427121639251709,-2.468794822692871,6.874579429626465
1764634069297547300,14.97554736328125,6.173482418060303,-2.5124638080596924,6.817749977111816
1764634069314294300,14.992294189453125,5.982655048370361,-2.536990165710449,6.780063152313232
1764634069331040500,15.00904052734375,5.969494342803955,-2.7044878005981445,6.87099027633667
1764634069347787300,15.025787353515625,6.096911907196045,-2.5363919734954834,6.7417778968811035
1764634069364533500,15.042533447265624,5.752345561981201,-2.427518606185913,6.8380889892578125
1764634069381296400,15.05929638671875,5.589035511016846,-2.4323041439056396,6.733402729034424
1764634069398038500,15.07603857421875,5.6344990730285645,-2.489732027053833,7.3022966384887695
1764634069414786600,15.09278662109375,6.285346984863281,-2.2342982292175293,8.094321250915527
1764634069431532000,15.109531982421874,6.8380889892578125,-1.8735800981521606,8.471190452575684
1764634069448278800,15.12627880859375,7.253243446350098,-1.7431713342666626,8.575876235961914
1764634069465025500,15.143025634765625,8.014759063720703,-1.8269200325012207,8.702695846557617
1764634069481756000,15.159755859375,9.20578670501709,-1.8478572368621826,8.800801277160645
1764634069498505200,15.176505126953124,10.405189514160156,-1.662413477897644,8.927022933959961
1764634069515252200,15.193252197265625,10.763514518737793,-1.3453645706176758,9.69631576538086
1764634069531998200,15.209998291015625,10.208977699279785,-1.2077772617340088,10.185647964477539
1764634069548745200,15.2267451171875,9.488140106201172,-1.2819547653198242,10.282557487487793
1764634069565491000,15.243490966796875,9.729815483093262,-1.109073281288147,9.990633010864258
1764634069582238200,15.26023828125,10.302896499633789,-1.2077772617340088,9.473184585571289
1764634069598984000,15.27698388671875,10.805388450622559,-1.5702898502349854,8.711071014404297
1764634069615731000,15.29373095703125,10.863414764404297,-1.7808582782745361,8.323433876037598
1764634069632477000,15.310476806640626,10.676176071166992,-1.805384635925293,7.980063438415527
1764634069649224200,15.32722412109375,10.364511489868164,-1.7724833488464355,7.779664516448975
1764634069665970000,15.343969970703125,10.334601402282715,-1.6241283416748047,7.799405574798584
1764634069682717000,15.360717041015626,10.198808670043945,-1.3710874319076538,7.766504287719727
1764634069699455000,15.377455078125,9.683155059814453,-1.089930772781372,7.284948348999023
1764634069716210000,15.3942099609375,9.528818130493164,-0.908674418926239,7.1850481033325195
1764634069732956000,15.410955810546875,9.81356430053711,-0.5916253924369812,7.466803073883057
1764634069749688000,15.42768798828125,9.519845008850098,-0.2955136001110077,7.524828910827637
1764634069766467600,15.444467529296874,8.857032775878906,0.01375873014330864,7.4979095458984375
1764634069783209000,15.461208984375,8.398807525634766,0.4576273262500763,7.432705402374268
1764634069799954700,15.47795458984375,8.414958953857422,0.8261220455169678,7.299305438995361
1764634069816683800,15.494683837890625,8.880363464355469,1.1670992374420166,7.135995388031006
1764634069833416200,15.511416259765625,9.068798065185547,1.4213366508483887,6.867999076843262
1764634069850179800,15.528179931640626,8.71226692199707,1.5882359743118286,6.414559364318848
1764634069866930400,15.544930419921876,8.60459041595459,1.817348837852478,6.166304111480713
1764634069883675400,15.56167529296875,8.735597610473633,2.0859432220458984,6.04247522354126
1764634069900419300,15.57841943359375,8.804988861083984,2.3539392948150635,5.90369176864624
1764634069917169400,15.59516943359375,8.46161937713623,2.7457640171051025,5.660820007324219
1764634069933930200,15.61193017578125,7.941778182983398,2.892324447631836,5.08355188369751
1764634069950671000,15.628671142578124,7.575676441192627,3.073580741882324,4.659423828125
1764634069967422500,15.64542236328125,7.1509504318237305,3.469592809677124,4.316651821136475
1764634069984166400,15.66216650390625,6.50608491897583,3.802793502807617,3.916452407836914
1764634070000912400,15.678912353515624,6.004788398742676,4.17009162902832,3.497110366821289
1764634070017659600,15.69565966796875,5.633302688598633,4.432105541229248,3.178266763687134
1764634070034405600,15.712405517578125,5.204987525939941,4.560121536254883,2.6727828979492188
1764634070051122400,15.729122314453125,4.691727161407471,4.572684288024902,2.066800594329834
1764634070067887400,15.745887451171875,4.409373760223389,4.964509010314941,1.5846468210220337
1764634070084633000,15.762633056640626,3.995415687561035,5.102096080780029,1.0648061037063599
1764634070101378800,15.77937890625,3.2853455543518066,5.196014404296875,0.5688936114311218
1764634070118125800,15.796125732421874,2.5944180488586426,5.318646430969238,0.10229317098855972
1764634070134872000,15.8128720703125,2.0213370323181152,5.661418437957764,-0.2787638306617737
1764634070151619000,15.829619140625,1.908276081085205,6.049055576324463,-0.32602208852767944
1764634070168365000,15.846364990234376,1.0259226560592651,6.3529438972473145,-0.39541393518447876
1764634070185111800,15.86311181640625,-0.2829512655735016,6.592824459075928,-0.7698906660079956
1764634070201857800,15.87985791015625,-1.3058829307556152,7.021139621734619,-0.9391828775405884
1764634070218605000,15.89660498046875,-1.8400806188583374,7.454838752746582,-0.8991031050682068
1764634070235351000,15.91335107421875,-2.293520450592041,7.812565803527832,-1.2083754539489746
1764634070252113700,15.93011376953125,-2.4813570976257324,7.946564197540283,-1.3130614757537842
1764634070268857000,15.946857177734374,-2.5112674236297607,8.11824893951416,-1.3752747774124146
1764634070285599700,15.963599853515625,-2.435295343399048,8.123632431030273,-1.4327025413513184
1764634070302337800,15.980337890625,-2.833700180053711,8.22293472290039,-1.7425731420516968
1764634070319084300,15.997084228515625,-2.8791637420654297,8.47178840637207,-1.8616160154342651
1764634070335829800,16.013829833984374,-2.310868501663208,8.612366676330566,-1.810170292854309
1764634070352576500,16.030576416015624,-1.9573289155960083,8.646464347839355,-1.6959130764007568
1764634070369323000,16.047322998046877,-1.6414763927459717,8.681160926818848,-1.6683956384658813
1764634070386069800,16.06406982421875,-1.828116536140442,8.7236328125,-1.6199408769607544
1764634070402831400,16.080831298828127,-2.1158533096313477,8.780462265014648,-1.7102699279785156
1764634070419599000,16.09759912109375,-2.2031915187835693,8.880363464355469,-1.848455548286438
1764634070436321800,16.11432177734375,-2.352144718170166,8.95693302154541,-1.8765711784362793
1764634070453068300,16.131068359375,-2.4921247959136963,9.08554744720459,-1.8239290714263916
1764634070469796400,16.14779638671875,-2.3192434310913086,9.172286987304688,-1.4895321130752563
1764634070486549800,16.1645498046875,-2.0614166259765625,9.239884376525879,-1.4374881982803345
1764634070503304400,16.181304443359377,-1.8370895385742188,9.254839897155762,-1.4518451690673828
1764634070520055000,16.198054931640623,-1.7653049230575562,9.221938133239746,-1.5242279767990112
1764634070536765200,16.21476513671875,-1.7509479522705078,9.241081237792969,-1.5954145193099976
1764634070553519400,16.231519287109375,-1.8041882514953613,9.278767585754395,-1.5427724123001099
1764634070570269000,16.24826904296875,-1.852044701576233,9.326624870300293,-1.4135600328445435
1764634070587027700,16.26502783203125,-1.7988044023513794,9.326624870300293,-1.332802176475525
1764634070603774000,16.28177392578125,-1.674377679824829,9.269794464111328,-1.4093725681304932
1764634070620520700,16.298520751953124,-1.2346965074539185,9.33320426940918,-1.3387842178344727
1764634070637251000,16.3152509765625,-0.8039883971214294,9.305686950683594,-1.3202399015426636
1764634070654013700,16.332013671875,-0.8321040868759155,9.272188186645508,-1.2915260791778564
1764634070670760000,16.348760009765623,-1.2239288091659546,9.170493125915527,-1.2861422300338745
1764634070687506700,16.365506591796876,-1.8544375896453857,9.063413619995117,-1.4572290182113647
1764634070704252400,16.38225244140625,-2.2947168350219727,9.000003814697266,-1.6378871202468872
1764634070720994600,16.39899462890625,-1.9022940397262573,8.996415138244629,-1.633699655532837
1764634070737749000,16.4157490234375,-0.9212366938591003,9.018548965454102,-1.4159528017044067
1764634070754489300,16.4324892578125,-0.06400800496339798,8.910871505737305,-1.2747762203216553
1764634070771238400,16.44923828125,-0.019740786403417587,8.786444664001465,-1.2317054271697998
1764634070787982000,16.465982177734375,-0.6879364848136902,8.630910873413086,-1.1108678579330444
1764634070804731600,16.482731689453125,-1.6767704486846924,8.537590980529785,-0.989432156085968
1764634070821478700,16.499478759765626,-2.617149829864502,8.324031829833984,-1.0498509407043457
1764634070838224400,16.516224365234375,-2.940778970718384,8.088338851928711,-1.1066805124282837
1764634070854956000,16.5329560546875,-1.9872392416000366,7.919046401977539,-0.8697910308837891
1764634070871718000,16.5497177734375,-0.2763710021972656,7.588837146759033,-0.6921239495277405
1764634070888464400,16.56646435546875,1.2993026971817017,7.320242881774902,-0.6532405614852905
1764634070905210400,16.58321044921875,2.1415762901306152,7.317849636077881,-0.49710890650749207
1764634070921975600,16.5999755859375,2.011765718460083,7.413562774658203,-0.30568310618400574
1764634070938716700,16.616716552734374,1.9884356260299683,7.432705402374268,-0.15732808411121368
1764634070955463200,16.633463134765623,2.5633113384246826,7.252047061920166,-0.23030917346477509
1764634070972209200,16.650209228515624,3.541377544403076,7.058826923370361,0.02512463741004467
1764634070988938200,16.666938232421874,4.19282341003418,6.902695178985596,-0.02871387079358101
1764634071005696300,16.6836962890625,4.847260475158691,6.464210510253906,0.0023928226437419653
1764634071022439200,16.700439208984374,5.474778175354004,6.245865345001221,-0.1136590763926506
1764634071039160600,16.71716064453125,5.442475318908691,5.881557941436768,-0.802193820476532
1764634071055921000,16.7339208984375,5.100899696350098,5.627320766448975,-0.615553617477417
1764634071072674600,16.750674560546877,5.151148796081543,5.641677379608154,0.30209386348724365
1764634071089423600,16.767423583984375,5.9336018562316895,5.557928562164307,1.0079765319824219
1764634071106148600,16.784148681640627,6.781857490539551,5.785246849060059,2.4023938179016113
1764634071122915300,16.800915283203125,7.205387115478516,5.56151819229126,2.554338216781616
1764634071139661600,16.81766162109375,6.822535514831543,5.617749214172363,2.665006160736084
1764634071156403700,16.83440380859375,7.03489875793457,4.9435715675354,1.3824533224105835
1764634071173154800,16.85115478515625,7.824530124664307,4.227519512176514,1.1988041400909424
1764634071189888000,16.867887939453126,9.137591361999512,3.896113395690918,1.262213945388794
1764634071206645800,16.884645751953126,9.369695663452148,3.6909289360046387,1.5672988891601562
1764634071223394000,16.90139404296875,8.913264274597168,3.436093330383301,1.7306089401245117
1764634071240140500,16.918140625,9.266205787658691,3.049652576446533,1.949552297592163
1764634071256869000,16.934869140625,9.732208251953125,2.830709218978882,2.1541385650634766
1764634071273649200,16.951649169921875,9.64965534210205,2.5286152362823486,2.4741785526275635
1764634071290375200,16.968375244140624,9.407979965209961,2.3748764991760254,2.8043880462646484
1764634071307139000,16.98513916015625,8.574081420898438,2.204986095428467,3.308077335357666
1764634071323886300,17.00188623046875,8.994022369384766,1.9716858863830566,4.086342811584473
1764634071340632000,17.018632080078124,9.937990188598633,1.9692929983139038,4.619344234466553
1764634071357382400,17.03538232421875,10.365707397460938,1.659422516822815,4.618147850036621
1764634071374109200,17.052109130859375,9.54496955871582,1.4799607992172241,4.629513740539551
1764634071390859500,17.068859619140625,8.683553695678711,1.085145115852356,5.027918815612793
1764634071407609000,17.085609130859375,9.102895736694336,1.1198409795761108,6.193222999572754
1764634071424352000,17.10235205078125,10.688140869140625,0.9906286001205444,6.658029079437256
1764634071441098500,17.119098388671876,12.105289459228516,0.7405785918235779,6.50189733505249
1764634071457845000,17.135844970703126,12.321242332458496,0.3966103494167328,5.7649078369140625
1764634071474603300,17.152603271484374,11.298310279846191,0.09212367236614227,5.102096080780029
1764634071491356200,17.169356201171876,10.347761154174805,-0.16450655460357666,4.826921463012695
1764634071508081400,17.186081298828125,9.683155059814453,-0.21415762603282928,4.7850470542907715
1764634071524825000,17.2028251953125,8.69491958618164,-0.3320041298866272,4.9980082511901855
1764634071541574100,17.21957421875,8.23011302947998,-0.5485545992851257,5.667998790740967
1764634071558327300,17.236327392578126,9.506086349487305,-0.7507480978965759,6.467799663543701
1764634071575054300,17.253054443359375,11.037492752075195,-0.97148597240448,6.26859712600708
1764634071591817500,17.2698173828125,10.97587776184082,-1.301695466041565,5.531607627868652
1764634071608563000,17.28656298828125,9.976275444030762,-1.319043517112732,5.443073272705078
1764634071625322800,17.30332275390625,8.671588897705078,-1.3178470134735107,5.733202934265137
1764634071642046500,17.32004638671875,7.970492362976074,-1.430309772491455,6.122036933898926
1764634071658803000,17.336802978515625,8.770891189575195,-1.4374881982803345,6.727420806884766
1764634071675549400,17.353549560546874,10.188638687133789,-1.5912270545959473,6.991827964782715
1764634071692285400,17.370285400390625,10.377073287963867,-1.72941255569458,7.167700290679932
1764634071709044500,17.38704443359375,9.32423210144043,-1.6079767942428589,7.294519901275635
1764634071725772800,17.403772705078126,8.108677864074707,-1.6067804098129272,7.149155616760254
1764634071742552800,17.420552734375,7.401000499725342,-1.709073543548584,6.87816858291626
1764634071759286800,17.437286865234373,7.124629497528076,-1.8394824266433716,6.811768054962158
1764634071776049000,17.454048828125,7.145566463470459,-1.9112670421600342,7.246663570404053
1764634071792774700,17.470774658203126,7.156932353973389,-1.8819550275802612,7.868198871612549
1764634071809533700,17.48753369140625,6.535995006561279,-1.965105652809143,8.022536277770996
1764634071826281500,17.504281494140624,5.9814581871032715,-2.062613010406494,7.784450054168701
1764634071843026700,17.521026611328125,5.9336018562316895,-2.134995937347412,7.665407180786133
1764634071859772400,17.5377724609375,6.120840549468994,-2.1104695796966553,7.87059211730957
1764634071876520200,17.554520263671876,6.183651924133301,-2.1577277183532715,7.999206066131592
1764634071893264100,17.57126416015625,6.269793510437012,-2.200798511505127,7.946564197540283
1764634071909998300,17.587998291015627,6.522834300994873,-2.128415822982788,7.941180229187012
1764634071926741200,17.6047412109375,6.646064758300781,-1.7928223609924316,8.414361000061035
1764634071943498000,17.621498046875,7.133004188537598,-1.5230315923690796,9.006584167480469
1764634071960261400,17.638261474609376,7.989634990692139,-1.6977076530456543,8.559724807739258
1764634071976980000,17.65497998046875,8.448458671569824,-1.978864312171936,7.850851058959961
1764634071993723100,17.67172314453125,8.295317649841309,-2.166102647781372,7.124629497528076
1764634072010473200,17.68847314453125,7.7461652755737305,-2.3736801147460938,6.809973239898682
1764634072027229400,17.7052294921875,7.0199432373046875,-2.4670002460479736,6.86381196975708
1764634072043963600,17.721963623046875,6.440880298614502,-2.3437697887420654,7.133004188537598
1764634072060718800,17.73871875,6.51745080947876,-2.094916343688965,7.89332389831543
1764634072077449700,17.75544970703125,7.421339511871338,-1.6995022296905518,8.910273551940918
1764634072094211800,17.7722119140625,8.376075744628906,-1.31365966796875,9.453444480895996
1764634072110974500,17.788974365234374,8.735597610473633,-1.3752747774124146,9.524032592773438
1764634072127701800,17.80570166015625,8.61475944519043,-1.2699905633926392,9.376275062561035
1764634072144450800,17.822450927734376,8.408378601074219,-1.2275179624557495,9.266803741455078
1764634072161198000,17.839197998046874,8.393424034118652,-1.179661512374878,9.151947975158691
1764634072177935000,17.85593505859375,8.81814956665039,-1.1784651279449463,8.940781593322754
1764634072194691000,17.872691162109376,9.392427444458008,-1.2580264806747437,8.848658561706543
1764634072211437000,17.88943701171875,9.979865074157715,-1.1461620330810547,8.780462265014648
1764634072228181200,17.90618115234375,10.113265037536621,-1.1748759746551514,8.507680892944336
1764634072244945400,17.9229453125,10.179067611694336,-1.2418749332427979,8.043473243713379
1764634072261673500,17.939673583984376,10.14437198638916,-1.246660590171814,7.579864025115967
1764634072278423300,17.95642333984375,9.818349838256836,-1.2430713176727295,7.135995388031006
1764634072295169800,17.973169677734376,9.654440879821777,-1.1569297313690186,6.94038200378418
1764634072311916000,17.989916015625,9.91107177734375,-0.97926265001297,6.921239376068115
1764634072328668200,18.006668212890624,10.1814603805542,-0.6771687865257263,7.064210414886475
1764634072345408800,18.02340869140625,10.198808670043945,-0.48035913705825806,7.073781967163086
1764634072362155800,18.04015576171875,10.211370468139648,-0.29371899366378784,6.825526714324951
1764634072378901800,18.05690185546875,10.103095054626465,0.02153540402650833,6.754340171813965
1764634072395649000,18.07364892578125,9.80817985534668,0.4085744619369507,6.678966045379639
1764634072412376800,18.090376953125,9.45164966583252,0.6472585201263428,6.507879257202148
1764634072429139700,18.1071396484375,9.367900848388672,0.890728235244751,6.331408500671387
1764634072445889300,18.12388916015625,9.623334884643555,1.1982059478759766,6.225526332855225
1764634072462635000,18.140635009765624,9.8267240524292,1.3758729696273804,5.828916072845459
1764634072479381000,18.157381103515625,9.588638305664062,1.6241283416748047,5.408975601196289
1764634072496125700,18.174125732421874,9.241679191589355,1.9148563146591187,5.13739013671875
1764634072512876300,18.190876220703124,9.061619758605957,2.187039852142334,4.898705959320068
1764634072529620500,18.207620361328125,8.997013092041016,2.431107759475708,4.789234638214111
1764634072546366700,18.22436669921875,8.84506893157959,2.7900311946868896,4.522434711456299
1764634072563112700,18.24111279296875,8.167302131652832,3.022135019302368,3.9936211109161377
1764634072579860000,18.25785986328125,7.489534854888916,3.1926236152648926,3.3308091163635254
1764634072596623600,18.27462353515625,6.612565517425537,3.3194432258605957,2.940778970718384
1764634072613363000,18.291363037109374,5.796014785766602,3.6568312644958496,2.6703901290893555
1764634072630098200,18.30809814453125,5.60099983215332,3.9912281036376953,2.307877540588379
1764634072646847200,18.32484716796875,5.358726501464844,4.244269371032715,2.0548365116119385
1764634072663593000,18.341593017578123,5.1152567863464355,4.564309120178223,1.3914263248443604
1764634072680338700,18.358338623046876,4.546961307525635,4.821537494659424,0.6711867451667786
1764634072697082000,18.37508203125,4.462614059448242,5.002793788909912,0.21714866161346436
1764634072713835800,18.391835693359376,4.023531436920166,5.365306377410889,-0.02512463741004467
1764634072730579000,18.408578857421876,3.2937204837799072,5.746363639831543,-0.0568295381963253
1764634072747324700,18.42532470703125,2.6536402702331543,6.223133563995361,-0.13579268753528595
1764634072764082000,18.44208203125,1.9561325311660767,6.580262184143066,-0.46420758962631226
1764634072780821200,18.4588212890625,1.7330018281936646,6.952944278717041,-0.5826523303985596
1764634072797565000,18.47556494140625,1.6869399547576904,7.287939548492432,-0.6107679605484009
1764634072814311000,18.492310791015626,1.3256237506866455,7.569694519042969,-0.8201399445533752
1764634072831058000,18.509057861328124,0.97926265001297,7.683353424072266,-1.158724308013916
1764634072847804000,18.525803955078125,0.6981059908866882,7.989036560058594,-1.4685949087142944
1764634072864551000,18.542551025390626,0.6227321028709412,8.45324420928955,-1.4871392250061035
1764634072881296400,18.55929638671875,0.5258227586746216,8.548358917236328,-1.5966109037399292
1764634072898044000,18.5760439453125,0.6963114142417908,8.663812637329102,-1.9363917112350464
1764634072914790000,18.592789794921874,0.7920243144035339,8.529814720153809,-2.204387903213501
1764634072931541200,18.609541259765624,0.6532405614852905,8.486743927001953,-2.510071039199829
1764634072948279000,18.626279052734375,-0.09272187948226929,8.407780647277832,-2.651845693588257
1764634072965033700,18.64303369140625,-0.6622136831283569,8.410771369934082,-2.8181469440460205
1764634072981776000,18.65977587890625,-1.0205388069152832,8.323433876037598,-2.9318058490753174
1764634072998523000,18.67652294921875,-1.526620864868164,8.212167739868164,-3.012563705444336
1764634073015270700,18.693270751953126,-1.9184455871582031,8.148757934570312,-2.9252257347106934
1764634073032010500,18.710010498046874,-2.36291241645813,8.066205024719238,-3.0107691287994385
1764634073048765000,18.726764892578124,-2.5776681900024414,7.974679470062256,-3.16331148147583
1764634073065506600,18.743506591796876,-2.84087872505188,7.988438606262207,-3.277568817138672
1764634073082256600,18.760256591796875,-2.899502754211426,8.093124389648438,-3.3535408973693848
1764634073099001900,18.777001953125,-2.7421748638153076,8.117650985717773,-3.4019956588745117
1764634073115747800,18.793747802734377,-2.6087749004364014,8.237890243530273,-3.311068296432495
1764634073132494600,18.81049462890625,-2.5088746547698975,8.36710262298584,-3.0723843574523926
1764634073149240800,18.82724072265625,-2.837887763977051,8.237292289733887,-3.1094729900360107
1764634073165987800,18.84398779296875,-3.5910286903381348,8.421539306640625,-3.2895328998565674
1764634073182733600,18.860733642578126,-3.5922250747680664,8.766105651855469,-2.868396043777466
1764634073199480600,18.87748046875,-3.352942705154419,8.652446746826172,-3.0269205570220947
1764634073216242700,18.89424267578125,-3.1902308464050293,8.623732566833496,-3.2614171504974365
1764634073232986000,18.910986083984376,-2.582453727722168,8.673383712768555,-2.9665019512176514
1764634073249706000,18.9277060546875,-2.366501569747925,8.597412109375,-2.871387243270874
1764634073266463200,18.944463134765623,-2.3808584213256836,8.563912391662598,-3.043670415878296
1764634073283212500,18.961212646484373,-2.6015963554382324,8.596813201904297,-3.1483564376831055
1764634073299962000,18.977962158203123,-2.5591237545013428,8.678169250488281,-3.119642496109009
1764634073316703500,18.994703369140623,-2.3718855381011963,8.597412109375,-2.9718856811523438
1764634073333452500,19.01145263671875,-2.2989044189453125,8.506484031677246,-2.895315408706665
1764634073350198800,19.02819873046875,-2.2989044189453125,8.492725372314453,-2.943171739578247
1764634073366961400,19.04496142578125,-2.280359983444214,8.521439552307129,-2.967100143432617
1764634073383704600,19.06170458984375,-2.026122570037842,8.469395637512207,-2.929413080215454
1764634073400451800,19.078451904296877,-1.552941918373108,8.528019905090332,-2.8827531337738037
1764634073417196300,19.0951962890625,-1.0067801475524902,8.448458671569824,-2.7696921825408936
1764634073433945300,19.1119453125,-0.5330012440681458,8.416155815124512,-2.7182464599609375
1764634073450691000,19.128691162109376,-0.3361915946006775,8.373682975769043,-2.6081767082214355
1764634073467421400,19.14542138671875,-0.001794616924598813,8.513663291931152,-2.379662036895752
1764634073484170500,19.16217041015625,0.4097708761692047,8.481359481811523,-2.2755744457244873
1764634073500917800,19.178917724609374,0.5204389095306396,8.356932640075684,-2.4047868251800537
1764634073517663700,19.195663818359375,0.49710890650749207,8.299505233764648,-2.4430718421936035
1764634073534410500,19.212410400390624,0.5736792087554932,8.428717613220215,-2.0895323753356934
1764634073551156700,19.22915673828125,0.99481600522995,8.458627700805664,-1.9184455871582031
1764634073567919600,19.245919677734374,1.8029918670654297,8.508877754211426,-1.7575281858444214
1764634073584646100,19.262646240234375,2.5154547691345215,8.50169849395752,-1.801795482635498
1764634073601396700,19.279396728515625,2.9898319244384766,8.263612747192383,-2.1619153022766113
1764634073618142500,19.296142578125,2.9180471897125244,8.507680892944336,-1.5493526458740234
1764634073634889500,19.312889404296875,2.8007988929748535,8.13380241394043,-1.8221344947814941
1764634073651635500,19.329635498046876,2.4681966304779053,7.95553731918335,-1.5014961957931519
1764634073668382700,19.3463828125,2.5603201389312744,7.759923934936523,-1.6546368598937988
1764634073685128200,19.363128173828127,2.1308085918426514,7.682157039642334,-1.3860424757003784
1764634073701875500,19.37987548828125,2.210369825363159,7.438089370727539,-1.1569297313690186
1764634073718621200,19.39662109375,2.978466033935547,7.253243446350098,-0.6281159520149231
1764634073735368200,19.4133681640625,4.033102512359619,6.854240417480469,-0.8171489238739014
1764634073752095500,19.430095458984376,4.231706619262695,6.5868425369262695,-0.8991031050682068
1764634073768865300,19.446865234375,3.8255252838134766,6.4947190284729,-0.8697910308837891
1764634073785604000,19.46360400390625,3.669393539428711,6.441478729248047,-0.5060819983482361
1764634073802357800,19.480357666015625,4.615156650543213,6.138188362121582,-0.12143574655056
1764634073819102200,19.497102294921874,5.971887111663818,5.691926956176758,-0.13459627330303192
1764634073835845600,19.513845703125,6.749554634094238,5.358726501464844,-0.07417750358581543
1764634073852594400,19.530594482421876,6.777071952819824,5.182255744934082,0.5754738450050354
1764634073869333500,19.54733349609375,6.715456962585449,5.186442852020264,0.714257538318634
1764634073886066000,19.56406591796875,6.492326259613037,5.018347263336182,0.8721838593482971
1764634073902833700,19.580833740234375,6.787839412689209,4.573880672454834,0.924227774143219
1764634073919579600,19.59757958984375,7.571488857269287,4.150351047515869,1.1700903177261353
1764634073936310800,19.614310791015626,8.885746955871582,3.627519130706787,1.057029366493225
1764634073953072600,19.63107275390625,9.556933403015137,3.5336008071899414,1.3519448041915894
1764634073969806300,19.647806396484373,9.309874534606934,3.466003656387329,1.7443677186965942
1764634073986545700,19.664545654296877,8.728418350219727,3.2823543548583984,1.984248161315918
1764634074003312000,19.68131201171875,8.761320114135742,2.923431158065796,2.304288148880005
1764634074020058400,19.698058349609376,9.525228500366211,2.5908286571502686,2.5459632873535156
1764634074036805000,19.71480517578125,10.647462844848633,2.1918256282806396,2.6434707641601562
1764634074053567700,19.731567626953126,11.35813045501709,2.026122570037842,3.077169895172119
1764634074070295300,19.74829541015625,11.105090141296387,2.0542383193969727,3.335594654083252
1764634074087044400,19.76504443359375,10.661819458007812,1.8903298377990723,3.3176486492156982
1764634074103791400,19.781791259765626,11.279766082763672,1.7341982126235962,3.224926710128784
1764634074120537600,19.79853759765625,11.630314826965332,1.4715858697891235,3.0616166591644287
1764634074137284000,19.8152841796875,10.819746017456055,1.100698471069336,2.8761727809906006
1764634074154030000,19.832030029296874,9.685547828674316,0.6759724020957947,2.9551360607147217
1764634074170777300,19.84877734375,9.717850685119629,0.4414757788181305,3.7387852668762207
1764634074187523000,19.865523193359376,10.389636039733887,0.3481557071208954,4.262813568115234
1764634074204286700,19.88228662109375,10.630114555358887,0.11904292553663254,4.023531436920166
1764634074221029600,19.899029541015626,9.894919395446777,-0.07477571070194244,3.8907296657562256
1764634074237783800,19.91578369140625,8.858229637145996,0.061016976833343506,4.596014022827148
1764634074254535400,19.932535400390623,8.247461318969727,0.27038896083831787,5.78345251083374
1764634074271253000,19.9492529296875,9.05264663696289,0.3684946894645691,6.7040910720825195
1764634074288002000,19.966001953125,10.268798828125,0.20877377688884735,6.629913330078125
1764634074304749000,19.9827490234375,10.733604431152344,-0.04366901144385338,6.332006931304932
1764634074321495000,19.9994951171875,10.084550857543945,-0.01196411345154047,6.778268337249756
1764634074338242000,20.016241943359375,8.919844627380371,-0.053240302950143814,7.493124008178711
1764634074354988300,20.03298828125,8.23130989074707,0.13160525262355804,8.011170387268066
1764634074371735300,20.0497353515625,8.868398666381836,0.1381855010986328,8.516654014587402
1764634074388481000,20.06648095703125,10.051650047302246,-0.07417750358581543,8.475378036499023
1764634074405224200,20.08322412109375,10.345967292785645,-0.5569294691085815,8.115856170654297
1764634074421990400,20.099990478515625,9.534201622009277,-0.7172485589981079,8.060222625732422
1764634074438718000,20.116718017578126,8.48734188079834,-0.7489534616470337,8.048258781433105
1764634074455467000,20.133467041015624,8.15234661102295,-0.8500502705574036,7.685148239135742
1764634074472200200,20.1502001953125,8.334799766540527,-1.0701899528503418,7.331010341644287
1764634074488960000,20.1669599609375,8.196015357971191,-1.2041879892349243,7.015756130218506
1764634074505703400,20.183703369140623,7.613363265991211,-1.3256237506866455,6.859025955200195
1764634074522456600,20.20045654296875,6.867401123046875,-1.332802176475525,6.9134626388549805
1764634074539185400,20.217185302734375,6.351149559020996,-1.353141188621521,6.971488952636719
1764634074555927300,20.23392724609375,6.1704912185668945,-1.4925230741500854,6.905087947845459
1764634074572681700,20.250681640625,6.208776473999023,-1.5738791227340698,6.818946361541748
1764634074589439000,20.26743896484375,6.486942291259766,-1.6259230375289917,6.890132904052734
1764634074606171400,20.28417138671875,6.588038921356201,-1.7066807746887207,6.932605266571045
1764634074622932000,20.300931884765625,6.675376892089844,-1.7976080179214478,6.960721015930176
1764634074639679000,20.317678955078126,6.786045074462891,-1.887937068939209,7.037291526794434
1764634074656425000,20.334425048828123,6.988238334655762,-1.978864312171936,7.228118896484375
1764634074673182700,20.3511826171875,7.208378314971924,-1.963310956954956,7.265805721282959
1764634074689902600,20.367902587890626,7.135396957397461,-1.8251254558563232,7.27537727355957
1764634074706649300,20.3846494140625,6.709474563598633,-1.7736797332763672,7.396214962005615
1764634074723411000,20.401410888671876,6.327221393585205,-1.7222341299057007,7.468597888946533
1764634074740154600,20.418154541015625,6.2877397537231445,-1.607378602027893,7.406384468078613
1764634074756906200,20.43490625,6.492326259613037,-1.5397813320159912,7.372884750366211
1764634074773649000,20.45164892578125,6.421139717102051,-1.4775680303573608,7.741379261016846
1764634074790390800,20.468390869140624,6.546762943267822,-1.4673985242843628,8.02791976928711
1764634074807144400,20.48514453125,6.824928283691406,-1.6247265338897705,8.041080474853516
1764634074823888100,20.50188818359375,7.094120979309082,-1.8203397989273071,7.868198871612549
1764634074840630800,20.518630859375,7.046862602233887,-1.949552297592163,7.6151580810546875
1764634074857400000,20.535400146484374,6.817749977111816,-2.132603168487549,7.424330234527588
1764634074874111500,20.552111572265623,6.661019802093506,-2.290529489517212,7.242475986480713
1764634074890876200,20.568876220703125,6.646663188934326,-2.3431715965270996,7.204190731048584
1764634074907607800,20.58560791015625,6.818946361541748,-2.324028968811035,7.1611199378967285
1764634074924369000,20.602368896484375,7.162914752960205,-2.241476535797119,7.27956485748291
1764634074941100500,20.6191005859375,7.692924976348877,-2.053041934967041,7.642077445983887
1764634074957858300,20.6358583984375,7.907082557678223,-1.7126628160476685,8.124829292297363
1764634074974612700,20.65261279296875,7.70967435836792,-1.4452649354934692,8.441280364990234
1764634074991355100,20.669355224609376,7.651050567626953,-1.124626636505127,8.986245155334473
1764634075008098000,20.68609814453125,7.754539966583252,-0.7363911867141724,9.42173957824707
1764634075024867800,20.702867919921875,8.011170387268066,-0.592223584651947,9.325428009033203
1764634075041600800,20.719600830078125,8.69910717010498,-0.6376872062683105,8.955737113952637
1764634075058353400,20.736353515625,9.449854850769043,-0.6502495408058167,8.84925651550293
1764634075075084500,20.75308447265625,9.942776679992676,-0.6681957244873047,8.915059089660645
1764634075091834000,20.769834228515624,9.972088813781738,-0.729810893535614,9.029315948486328
1764634075108582000,20.786581787109377,9.919445991516113,-0.7495517134666443,8.886344909667969
1764634075125325800,20.803325927734374,10.119247436523438,-0.7824530005455017,8.455636978149414
1764634075142073900,20.820073974609375,10.433902740478516,-0.8865407705307007,7.832904815673828
1764634075158817800,20.83681787109375,10.84008502960205,-0.9625129103660583,7.334599494934082
1764634075175569000,20.85356884765625,10.7766752243042,-0.8668000102043152,7.177271366119385
1764634075192313000,20.87031298828125,10.306485176086426,-0.8392825126647949,6.881757736206055
1764634075209056000,20.887055908203124,9.951749801635742,-0.8213363885879517,6.581458568572998
1764634075225809700,20.9038095703125,9.839884757995605,-0.6825526356697083,6.390631198883057
1764634075242568700,20.920568603515626,9.842875480651855,-0.5102694034576416,6.247660160064697
1764634075259309800,20.937309814453126,9.865009307861328,-0.37148571014404297,5.908477306365967
1764634075276047000,20.954047119140625,9.890732765197754,-0.0891326442360878,5.6309099197387695
1764634075292792000,20.9707919921875,9.701101303100586,0.1782652884721756,5.388038158416748
1764634075309538800,20.987538818359376,9.511469841003418,0.5084748268127441,5.2115678787231445
1764634075326284800,21.004284912109377,9.062217712402344,0.9954141974449158,5.160720348358154
1764634075343031800,21.02103173828125,8.49990463256836,1.3573286533355713,5.248656272888184
1764634075359774000,21.03777392578125,8.621339797973633,1.817348837852478,5.368297576904297
1764634075376544500,21.05454443359375,8.909076690673828,2.148754835128784,5.042873859405518
1764634075393268500,21.0712685546875,9.131608963012695,2.2307088375091553,4.396811485290527
1764634075410018000,21.08801806640625,9.200403213500977,2.345564365386963,3.7082769870758057
1764634075426764300,21.104764404296876,8.93420124053955,2.5986053943634033,3.3266217708587646
1764634075443507500,21.121507568359377,8.46760082244873,2.8654050827026367,3.2656047344207764
1764634075460260400,21.13826025390625,8.59322452545166,3.2440693378448486,2.950350284576416
1764634075476988400,21.154988525390625,8.141578674316406,3.3954153060913086,2.6219353675842285
1764634075493750000,21.17175,7.8041911125183105,3.5958142280578613,2.369492530822754
1764634075510495200,21.1884951171875,7.605587005615234,3.786641836166382,2.0303099155426025
1764634075527244500,21.20524462890625,7.147959232330322,4.043870449066162,1.6061822175979614
1764634075543983900,21.22198388671875,6.582056999206543,4.171288013458252,1.3495519161224365
1764634075560735700,21.23873583984375,6.464210510253906,4.444069862365723,1.158724308013916
1764634075577483000,21.25548291015625,6.671787738800049,4.612165451049805,0.5419743061065674
1764634075594225400,21.272225341796876,6.543771743774414,4.774279594421387,-0.10289137065410614
1764634075610979000,21.28897900390625,6.10468864440918,5.112864017486572,-0.5563312768936157
1764634075627707600,21.305707763671876,5.167898654937744,5.584249973297119,-0.6442674994468689
1764634075644469000,21.322468994140625,4.405784606933594,5.830710411071777,-0.6951149702072144
1764634075661210400,21.33921044921875,4.019941806793213,6.126822471618652,-0.794417142868042
1764634075677966000,21.355966064453124,3.757927894592285,6.5904316902160645,-0.8171489238739014
1764634075694701300,21.372701416015627,3.5306098461151123,6.943971157073975,-0.6586244106292725
1764634075711455000,21.389455078125,2.988635540008545,7.277770042419434,-0.3607180118560791
1764634075728201000,21.406200927734375,2.493321180343628,7.615756034851074,-0.24406790733337402
1764634075744947700,21.42294775390625,1.2921242713928223,7.651050567626953,-0.5186443328857422
1764634075761702700,21.43970263671875,0.07118647545576096,7.657032489776611,-1.0564311742782593
1764634075778457000,21.45645703125,-0.8201399445533752,7.701898097991943,-1.566102385520935
1764634075795195100,21.473195068359374,-0.7363911867141724,7.898707389831543,-1.8047864437103271
1764634075811951400,21.489951416015625,-0.607776939868927,7.927421569824219,-1.8765711784362793
1764634075828683800,21.506683837890623,-0.698704183101654,7.903493404388428,-1.9866410493850708
1764634075845418000,21.52341796875,-0.5808576941490173,7.961519241333008,-2.2737796306610107
1764634075862187800,21.540187744140624,-0.26201409101486206,8.019545555114746,-2.7284159660339355
1764634075878916900,21.556916748046874,0.03349951654672623,8.029714584350586,-3.126222848892212
1764634075895650300,21.573650390625,0.4384847581386566,8.083553314208984,-3.3996028900146484
1764634075912406800,21.59040673828125,0.9589236974716187,8.11406135559082,-3.6394832134246826
1764634075929158700,21.60715869140625,1.3357932567596436,8.244470596313477,-3.635295867919922
1764634075945905700,21.62390576171875,1.191625714302063,8.406583786010742,-3.4917263984680176
