time,seconds_elapsed,z,y,x
1764634054535516700,0.2135166015625,-3.2472755908966064,-2.12841796875,-0.5058637857437134
1764634054552270300,0.230270263671875,-3.7939584255218506,-2.044999599456787,-1.239609718322754
1764634054569014500,0.2470146484375,-3.9708375930786133,-1.536207675933838,-1.9356127977371216
1764634054585760800,0.2637607421875,-3.373985528945923,-1.5873122215270996,-2.0654802322387695
1764634054602498000,0.280498046875,-2.235335111618042,-2.2753796577453613,-1.7266144752502441
1764634054619256300,0.29725634765625,-0.9898271560668945,-2.5549049377441406,-1.5462870597839355
1764634054636012000,0.314011962890625,-0.2201557159423828,-2.535810947418213,-1.2641854286193848
1764634054652751000,0.330751220703125,0.11371850967407227,-2.410365104675293,-0.9366801977157593
1764634054669487900,0.34748779296875,0.11307668685913086,-2.25449275970459,-0.6829716563224792
1764634054686240800,0.36424072265625,-0.10094976425170898,-2.143045425415039,-0.5463797450065613
1764634054702988300,0.38098828125,0.015140533447265625,-2.168482780456543,-0.5786654353141785
1764634054719733000,0.39773291015625,0.680030345916748,-2.033751964569092,-0.506894588470459
1764634054736482600,0.414482666015625,1.1580195426940918,-1.8555760383605957,-0.3839924931526184
1764634054753236500,0.431236572265625,1.4637064933776855,-1.7355947494506836,-0.3216787576675415
1764634054769969200,0.44796923828125,1.8368511199951172,-1.7144479751586914,-0.4657215476036072
1764634054786732500,0.464732666015625,2.7151246070861816,-1.676936149597168,-0.6149091720581055
1764634054803484200,0.481484130859375,3.320329189300537,-1.5996460914611816,-0.5877766609191895
1764634054820246300,0.498246337890625,3.1025829315185547,-1.8535583019256592,-0.5977127552032471
1764634054836954000,0.5149541015625,2.8855886459350586,-1.7611067295074463,-0.9333066940307617
1764634054853711000,0.531711181640625,2.5595436096191406,-1.5202345848083496,-0.7529255747795105
1764634054870455600,0.54845556640625,1.6890649795532227,-1.664642095565796,-0.7141178846359253
1764634054887189800,0.565189697265625,1.019418716430664,-1.6846024990081787,-1.114081859588623
1764634054903950600,0.58195068359375,0.5844230651855469,-1.566049337387085,-1.3758891820907593
1764634054920689400,0.598689453125,0.15386486053466797,-1.3607807159423828,-1.5632002353668213
1764634054937454600,0.61545458984375,-0.07607650756835938,-1.4010264873504639,-1.4163315296173096
1764634054954198800,0.63219873046875,0.07098674774169922,-1.6311712265014648,-1.2669944763183594
1764634054970926800,0.6489267578125,0.04752159118652344,-1.9421072006225586,-1.245961308479309
1764634054987688400,0.6656884765625,0.21564292907714844,-2.1265921592712402,-1.2665956020355225
1764634055004438000,0.68243798828125,1.0429916381835938,-2.406202793121338,-1.3620606660842896
1764634055021164300,0.699164306640625,1.4362659454345703,-2.070192575454712,-0.7105543613433838
1764634055037895400,0.7158955078125,1.5534420013427734,-1.5828139781951904,-0.4899060130119324
1764634055054663700,0.73266357421875,1.2023754119873047,-1.1727826595306396,0.12510919570922852
1764634055071411000,0.749410888671875,0.6413469314575195,-0.917844295501709,0.029816031455993652
1764634055088158000,0.766157958984375,0.2558603286743164,-1.0305875539779663,-0.44305914640426636
1764634055104899000,0.782899169921875,-0.049981117248535156,-1.418272614479065,-1.0001492500305176
1764634055121666800,0.799666748046875,-0.9724283218383789,-2.1591012477874756,-0.5078068971633911
1764634055138411300,0.816411376953125,-1.5708985328674316,-1.8837858438491821,-0.9861903190612793
1764634055155154000,0.83315380859375,0.5755500793457031,-1.3717317581176758,-1.791558027267456
1764634055171902000,0.84990185546875,3.2083492279052734,-1.6490309238433838,-0.7623975276947021
1764634055188649500,0.8666494140625,4.6266374588012695,-1.193987250328064,0.13005495071411133
1764634055205387300,0.88338720703125,4.314266204833984,-0.890934407711029,0.20980095863342285
1764634055222148600,0.900148681640625,3.0465831756591797,-0.5366824865341187,-0.24236607551574707
1764634055238887700,0.9168876953125,1.8269052505493164,-0.3418121337890625,-0.8050761222839355
1764634055255633000,0.9336328125,1.2948455810546875,-0.5707025527954102,-1.2288165092468262
1764634055272365000,0.950364990234375,2.04056453704834,-0.6709284782409668,-1.2442076206207275
1764634055289116400,0.967116455078125,3.3051023483276367,-0.21455976366996765,-1.312263011932373
1764634055305861000,0.983861083984375,2.7164907455444336,-0.9121983647346497,-2.4856719970703125
1764634055322608600,1.000608642578125,2.3298568725585938,-1.262263298034668,-1.9177048206329346
1764634055339353300,1.017353271484375,2.0311050415039062,-2.108436346054077,-1.1637470722198486
1764634055356102100,1.03410205078125,2.8352012634277344,-2.324160575866699,-1.8334681987762451
1764634055372847600,1.05084765625,4.485459327697754,-1.5151118040084839,-1.6389153003692627
1764634055389594400,1.067594482421875,5.2705583572387695,-1.7170000076293945,-0.8103852272033691
1764634055406339000,1.084339111328125,5.5262556076049805,-1.5906071662902832,0.17041683197021484
1764634055423076000,1.101076171875,5.277650833129883,-1.6990060806274414,-0.13747835159301758
1764634055439847000,1.117846923828125,4.812971115112305,-1.7115089893341064,-0.19260716438293457
1764634055456591400,1.13459130859375,2.3205060958862305,-1.27317214012146,-0.9453816413879395
1764634055473323300,1.1513232421875,-0.5960588455200195,-0.731844961643219,-0.8990604877471924
1764634055490073000,1.168072998046875,-2.0662808418273926,-0.1993308663368225,-0.6446583271026611
1764634055506819800,1.18481982421875,-0.5665149688720703,-1.1481003761291504,0.2597198486328125
1764634055523566000,1.201566162109375,0.9795722961425781,-1.1155412197113037,-0.19528436660766602
1764634055540311600,1.2183115234375,1.1517629623413086,-1.3147591352462769,-0.5249087810516357
1764634055557044500,1.23504443359375,0.8217983245849609,-1.5086004734039307,-0.8421580791473389
1764634055573807400,1.251807373046875,0.2578573226928711,-1.4958570003509521,-0.7795140743255615
1764634055590550500,1.268550537109375,-0.10353565216064453,-1.214384913444519,-0.776914119720459
1764634055607282400,1.285282470703125,-0.1611795425415039,-1.0765726566314697,-1.0911750793457031
1764634055624044800,1.302044921875,0.6390104293823242,-1.6052484512329102,-0.9545900821685791
1764634055640788700,1.318788818359375,0.608057975769043,-1.780691146850586,-0.8952662944793701
1764634055657524000,1.33552392578125,-0.15668869018554688,-1.5707494020462036,-1.2095887660980225
1764634055674304000,1.352303955078125,-0.7796468734741211,-1.4580600261688232,-1.8811042308807373
1764634055691044900,1.369044921875,-0.3321967124938965,-1.4471676349639893,-2.5326194763183594
1764634055707769300,1.385769287109375,0.5378379821777344,-1.3418803215026855,-3.002582550048828
1764634055724545000,1.402544921875,0.07736968994140625,-0.45038461685180664,-2.2772533893585205
1764634055741279700,1.41927978515625,-1.6987624168395996,-0.5488204956054688,0.11925554275512695
1764634055758011000,1.436010986328125,-4.0684494972229,-0.9164249897003174,0.7142343521118164
1764634055774770200,1.452770263671875,-2.6266865730285645,0.10023307800292969,-1.2816641330718994
1764634055791526700,1.469526611328125,3.4972219467163086,0.9468832015991211,-3.4419102668762207
1764634055808247000,1.4862470703125,6.83956241607666,-1.4934804439544678,-0.8218741416931152
1764634055824998000,1.502997802734375,7.163202285766602,-2.496464729309082,1.8626976013183594
1764634055841745400,1.519745361328125,6.542241096496582,-1.2110443115234375,0.010196924209594727
1764634055858499600,1.53649951171875,3.9685354232788086,-1.1753075122833252,-1.37563157081604
1764634055875240200,1.553240234375,2.2308387756347656,-0.3936166763305664,-1.4114713668823242
1764634055891987000,1.569987060546875,1.9493350982666016,-0.002229452133178711,-0.3879208564758301
1764634055908721400,1.586721435546875,2.9698667526245117,0.022533655166625977,0.9241940975189209
1764634055925480000,1.60347998046875,3.668826103210449,-0.29457592964172363,0.6334640979766846
1764634055942227200,1.620227294921875,4.704042434692383,0.4182465076446533,-0.5929203033447266
1764634055958973200,1.63697314453125,4.505149841308594,-0.14106082916259766,-0.1370410919189453
1764634055975727900,1.653727783203125,4.7504472732543945,-0.2246866226196289,-0.4437375068664551
1764634055992458200,1.670458251953125,4.580304145812988,-0.8925833702087402,-0.5279464721679688
1764634056009213400,1.68721337890625,4.8427581787109375,-1.018812894821167,-0.36551713943481445
1764634056025959000,1.703958984375,5.346269130706787,-1.1184473037719727,0.9623193740844727
1764634056042706400,1.72070654296875,5.2551045417785645,-1.2379627227783203,2.1089935302734375
1764634056059453200,1.737453125,4.377982139587402,-1.462449550628662,1.9044559001922607
1764634056076198000,1.754197998046875,3.165926933288574,-1.9628005027770996,1.2359647750854492
1764634056092961500,1.77096142578125,3.1789779663085938,-2.2794952392578125,0.8551890850067139
1764634056109760000,1.787760009765625,3.1778969764709473,-2.5795717239379883,0.7118942737579346
1764634056126450400,1.804450439453125,3.0629096031188965,-2.867042064666748,0.9163961410522461
1764634056143197200,1.821197265625,2.747673511505127,-3.2818126678466797,0.8383800983428955
1764634056159944400,1.8379443359375,2.359534740447998,-3.8171019554138184,0.5710701942443848
1764634056176690000,1.85468994140625,2.1359405517578125,-4.34002161026001,0.33375048637390137
1764634056193437200,1.871437255859375,1.9783787727355957,-4.383691310882568,0.3864189386367798
1764634056210165800,1.888165771484375,2.3016295433044434,-4.607977390289307,0.39353716373443604
1764634056226932500,1.904932373046875,2.7141053676605225,-4.940611362457275,0.24009835720062256
1764634056243673600,1.921673583984375,2.673013210296631,-4.974610328674316,-0.30145514011383057
1764634056260423700,1.938423583984375,2.1908695697784424,-5.138189792633057,-0.3819730877876282
1764634056277168400,1.95516845703125,1.2616658210754395,-5.328469276428223,-0.6507127285003662
1764634056293910300,1.97191015625,0.83022141456604,-5.223886966705322,-0.6766629815101624
1764634056310664400,1.98866455078125,0.7384953498840332,-4.621921062469482,-0.9655494689941406
1764634056327397400,2.0053974609375,0.3785814046859741,-4.3996171951293945,-0.6676005125045776
1764634056344141300,2.022141357421875,-0.33319878578186035,-4.135210037231445,-0.17315328121185303
1764634056360888000,2.03888818359375,-0.585871160030365,-3.3034563064575195,-0.6142023801803589
1764634056377637400,2.055637451171875,-1.07459557056427,-2.9493112564086914,-1.3141342401504517
1764634056394381300,2.07238134765625,-1.0519338846206665,-3.2056503295898438,-1.0586191415786743
1764634056411131400,2.08913134765625,-0.4847571849822998,-3.2030177116394043,-0.931745171546936
1764634056427887600,2.1058876953125,-0.3522907495498657,-3.072981357574463,-0.5383260250091553
1764634056444632000,2.122632080078125,-1.277633547782898,-2.7470579147338867,-0.4909595251083374
1764634056461365200,2.139365234375,-2.3509681224823,-2.2739391326904297,-0.7874343395233154
1764634056478116000,2.1561162109375,-2.6493990421295166,-2.050222396850586,-1.2646417617797852
1764634056494860500,2.172860595703125,-2.466693639755249,-1.9900627136230469,-1.2773736715316772
1764634056511606500,2.1896064453125,-2.2618558406829834,-2.075362205505371,-1.2425646781921387
1764634056528355000,2.20635498046875,-2.385972023010254,-2.0450687408447266,-1.455443263053894
1764634056545102300,2.223102294921875,-2.4965648651123047,-1.7157683372497559,-1.6081607341766357
1764634056561846800,2.2398466796875,-2.1072564125061035,-1.1895275115966797,-1.4540443420410156
1764634056578579700,2.256579833984375,-2.305295705795288,0.00019931793212890625,0.39951610565185547
1764634056595339300,2.27333935546875,-0.5029280185699463,-1.1800847053527832,-1.1675447225570679
1764634056612072700,2.29007275390625,-0.04564499855041504,-1.3082175254821777,-1.3499889373779297
1764634056628833500,2.30683349609375,-0.04169058799743652,-1.172907829284668,-1.2728270292282104
1764634056645574400,2.323574462890625,-0.8140707015991211,-0.7150964736938477,-0.7755758762359619
1764634056662329600,2.34032958984375,-1.620924949645996,-0.33901309967041016,-0.3349419832229614
1764634056679087400,2.35708740234375,-1.7983098030090332,-0.2725057601928711,-0.3656654357910156
1764634056695836200,2.373836181640625,-1.175384521484375,-0.41891956329345703,-0.4949955940246582
1764634056712578000,2.390578125,-0.6571829319000244,-0.7333192825317383,-0.6982067823410034
1764634056729323800,2.40732373046875,-0.7031135559082031,-1.0297203063964844,-0.8963075876235962
1764634056746073300,2.4240732421875,-1.1917598247528076,-1.1556267738342285,-1.2166863679885864
1764634056762815700,2.440815673828125,-1.4785277843475342,-1.132277488708496,-1.4420249462127686
1764634056779562800,2.457562744140625,-1.3347735404968262,-1.176466464996338,-1.5153586864471436
1764634056796308700,2.474308837890625,-0.7487673759460449,-1.3772945404052734,-1.4701340198516846
1764634056813041400,2.49104150390625,-0.42700648307800293,-1.707930564880371,-1.3619368076324463
1764634056829768700,2.507768798828125,-0.7738058567047119,-1.901369571685791,-1.3998665809631348
1764634056846536000,2.524535888671875,-1.5932917594909668,-1.875462532043457,-1.3441815376281738
1764634056863283700,2.54128369140625,-2.2117629051208496,-1.612330436706543,-1.203437328338623
1764634056880030200,2.5580302734375,-2.170652389526367,-1.7642273902893066,-1.265106439590454
1764634056896785000,2.574784912109375,-1.5716122388839722,-1.9107294082641602,-0.9831383228302002
1764634056913538800,2.591538818359375,-1.0244662761688232,-1.9838552474975586,-0.435260534286499
1764634056930281700,2.60828173828125,-0.9850002527236938,-2.155216693878174,0.03315544128417969
1764634056947004700,2.625004638671875,-1.3075181245803833,-2.8371663093566895,-0.34364819526672363
1764634056963758600,2.641758544921875,-1.8715691566467285,-3.4603376388549805,-0.826951265335083
1764634056980508700,2.6585087890625,-2.412766933441162,-3.4456467628479004,-0.6477046012878418
1764634056997256200,2.675256103515625,-2.520298719406128,-3.263253688812256,-0.4256095886230469
1764634057013997600,2.69199755859375,-1.9163343906402588,-3.6522746086120605,-0.5468833446502686
1764634057030748400,2.70874853515625,-0.7536941170692444,-4.271876335144043,-0.628986120223999
1764634057047495400,2.725495361328125,0.026219606399536133,-4.7550764083862305,-0.38667798042297363
1764634057064240400,2.742240478515625,0.13928651809692383,-4.772653579711914,0.18130099773406982
1764634057080983600,2.758983642578125,0.4080009460449219,-4.604526519775391,0.5891534090042114
1764634057097739500,2.775739501953125,1.4159278869628906,-4.545612335205078,0.7200890779495239
1764634057114486000,2.792486083984375,1.7912378311157227,-4.064929962158203,1.1949353218078613
1764634057131238100,2.809238037109375,2.1113553047180176,-3.8379712104797363,1.3671902418136597
1764634057147987700,2.82598779296875,2.313142776489258,-3.890310764312744,0.7506221532821655
1764634057164732000,2.84273193359375,1.9885458946228027,-3.7956690788269043,0.12758874893188477
1764634057181457000,2.859456787109375,1.6337718963623047,-3.909332275390625,-0.3832066059112549
1764634057198228700,2.876228759765625,0.7808089256286621,-3.8209166526794434,-0.5182950496673584
1764634057214971000,2.892970947265625,-0.09763336181640625,-3.740919589996338,-0.1286822110414505
1764634057231714300,2.90971435546875,0.0606389045715332,-3.7533984184265137,0.365852415561676
1764634057248451800,2.926451904296875,1.8460612297058105,-3.7770767211914062,0.8572810292243958
1764634057265209300,2.943209228515625,3.9797544479370117,-3.4937498569488525,1.4106788635253906
1764634057281936600,2.9599365234375,4.246264457702637,-3.177609443664551,1.6935093402862549
1764634057298703400,2.976703369140625,3.3375511169433594,-2.674344778060913,1.8605194091796875
1764634057315437000,2.99343701171875,3.1174302101135254,-2.3925554752349854,1.532876968383789
1764634057332185000,3.01018505859375,3.5568599700927734,-2.072099447250366,1.8670976161956787
1764634057348931800,3.026931884765625,3.5351991653442383,-1.7085821628570557,2.171812057495117
1764634057365672700,3.043672607421875,3.253276824951172,-1.590648889541626,2.13991379737854
1764634057382412500,3.06041259765625,2.614861488342285,-1.7021541595458984,1.7190496921539307
1764634057399174700,3.077174560546875,2.189126968383789,-1.6688578128814697,1.4012234210968018
1764634057415914000,3.0939140625,2.2897748947143555,-1.7200825214385986,1.3598487377166748
1764634057432673500,3.110673583984375,2.7204065322875977,-1.4369609355926514,1.302689552307129
1764634057449407700,3.12740771484375,3.071314811706543,-1.197523593902588,1.2663888931274414
1764634057466155500,3.144155517578125,3.4685912132263184,-1.2109659910202026,1.3035130500793457
1764634057482894300,3.160894287109375,4.061407089233398,-1.326424241065979,1.0752882957458496
1764634057499653600,3.177653564453125,4.154698848724365,-1.4708178043365479,0.5155539512634277
1764634057516394800,3.194394775390625,3.5250415802001953,-1.4828479290008545,0.049581050872802734
1764634057533142800,3.211142822265625,2.597548484802246,-1.2599127292633057,-0.2690567970275879
1764634057549887200,3.22788720703125,2.372734546661377,-0.7911809682846069,0.026660919189453125
1764634057566643000,3.244642822265625,2.7967681884765625,-0.5941066741943359,0.1838059425354004
1764634057583399700,3.261399658203125,3.573965072631836,-0.4857943654060364,0.1525421142578125
1764634057600141800,3.278141845703125,3.830550193786621,-0.4237060546875,-0.2036290168762207
1764634057616852000,3.29485205078125,3.3744306564331055,-0.3034220337867737,0.048609256744384766
1764634057633639400,3.311639404296875,2.369826316833496,0.15062201023101807,0.8743906021118164
1764634057650362400,3.3283623046875,1.0802803039550781,0.40187448263168335,0.4424929618835449
1764634057667123200,3.345123291015625,1.3616113662719727,0.008999407291412354,-0.2065138816833496
1764634057683857400,3.361857421875,2.089989185333252,-0.4799376130104065,-0.5461883544921875
1764634057700625400,3.37862548828125,2.2919111251831055,-0.7838887572288513,-0.5870518684387207
1764634057717332000,3.39533203125,1.7077159881591797,-0.9880779981613159,-0.8135213851928711
1764634057734082300,3.412082275390625,1.5878486633300781,-1.0330439805984497,-0.4344801902770996
1764634057750831600,3.42883154296875,1.5992932319641113,-0.9399665594100952,-0.031064510345458984
1764634057767593500,3.445593505859375,1.2440991401672363,-1.0736794471740723,0.21963214874267578
1764634057784340200,3.46234033203125,0.8718843460083008,-1.0720404386520386,-0.05597114562988281
1764634057801083000,3.479082763671875,0.7934894561767578,-1.0659714937210083,-0.41661787033081055
1764634057817821400,3.495821533203125,0.8376121520996094,-1.054099202156067,-0.2664451599121094
1764634057834579700,3.512579833984375,0.8154377937316895,-0.9002813696861267,-0.15200471878051758
1764634057851326000,3.529325927734375,0.6704883575439453,-0.8196088671684265,-0.11951351165771484
1764634057868072700,3.54607275390625,0.7384462356567383,-0.8221797943115234,-0.049610137939453125
1764634057884803300,3.56280322265625,0.7025566101074219,-0.7206071615219116,0.0372462272644043
1764634057901581600,3.57958154296875,0.43613576889038086,-0.7300297021865845,-0.10928678512573242
1764634057918321400,3.5963212890625,0.33007097244262695,-0.7129938006401062,-0.04496335983276367
1764634057935055600,3.6130556640625,0.4430398941040039,-0.7322021126747131,-0.12470579147338867
1764634057951804700,3.6298046875,0.7608642578125,-0.720928966999054,-0.26807165145874023
1764634057968551200,3.64655126953125,1.175802230834961,-0.5856338739395142,-0.34741878509521484
1764634057985297700,3.663297607421875,1.3498001098632812,-0.5870395302772522,-0.4301929473876953
1764634058002045000,3.680044921875,1.5422148704528809,-0.6502025127410889,-0.5313472747802734
1764634058018790400,3.696790283203125,1.730630874633789,-0.7097322940826416,-0.4869260787963867
1764634058035553500,3.713553466796875,1.8983778953552246,-0.7723426818847656,-0.3770937919616699
1764634058052278000,3.730278076171875,1.9147310256958008,-0.8174834847450256,-0.3297262191772461
1764634058069043000,3.74704296875,2.0258383750915527,-0.8212801814079285,-0.13096141815185547
1764634058085785000,3.76378515625,1.9388208389282227,-0.7681861519813538,0.029603958129882812
1764634058102524400,3.7805244140625,1.829289436340332,-0.7630565762519836,0.044376373291015625
1764634058119269600,3.79726953125,1.6990375518798828,-0.6280657649040222,0.1179056167602539
1764634058136016400,3.814016357421875,1.7277116775512695,-0.3726787269115448,0.3536839485168457
1764634058152762400,3.830762451171875,1.9607939720153809,-0.18971161544322968,0.7463951110839844
1764634058169509000,3.847509033203125,2.039661407470703,-0.3826254904270172,1.3326148986816406
1764634058186255600,3.864255615234375,2.1717019081115723,0.28769415616989136,0.9067754745483398
1764634058203018800,3.881018798828125,2.602464199066162,0.07484197616577148,1.4872360229492188
1764634058219755300,3.89775537109375,2.8068366050720215,-0.22446966171264648,1.5262789726257324
1764634058236489000,3.914489013671875,3.2942047119140625,-0.2670278251171112,1.2552990913391113
1764634058253259000,3.931259033203125,3.860511302947998,-0.2786169648170471,0.7894210815429688
1764634058269978400,3.947978271484375,4.807774066925049,-0.22302889823913574,0.7235016822814941
1764634058286725400,3.964725341796875,6.018028259277344,-0.28761518001556396,1.429891586303711
1764634058303480800,3.981480712890625,6.548825263977051,-0.4559255838394165,2.8816919326782227
1764634058320224000,3.99822412109375,5.830444812774658,-0.8626517653465271,3.494978427886963
1764634058336977400,4.014977294921875,4.798064231872559,-1.6038811206817627,3.223167896270752
1764634058353720000,4.031719970703125,4.00872278213501,-2.2129366397857666,2.6314988136291504
1764634058370467000,4.048467041015625,3.657071113586426,-2.588916301727295,1.9457030296325684
1764634058387195000,4.06519482421875,3.8565750122070312,-3.0217478275299072,1.928947925567627
1764634058403962600,4.081962646484375,3.991938591003418,-3.441718816757202,2.093116283416748
1764634058420690400,4.0986904296875,3.6133298873901367,-3.828751564025879,2.161623001098633
1764634058437437700,4.115437744140625,2.974498748779297,-4.092135429382324,2.292165756225586
1764634058454195700,4.13219580078125,2.067564010620117,-4.350583076477051,2.330065965652466
1764634058470950000,4.148949951171875,1.4722719192504883,-4.466871738433838,2.2418134212493896
1764634058487690200,4.165690185546875,1.1162166595458984,-4.528525352478027,2.3600120544433594
1764634058504438800,4.182438720703125,0.6996903419494629,-4.634960651397705,2.5001697540283203
1764634058521185000,4.19918505859375,0.5456647872924805,-4.690098762512207,2.4493279457092285
1764634058537928000,4.215927978515625,0.27423763275146484,-4.781373977661133,2.2913520336151123
1764634058554681600,4.232681640625,0.09569168090820312,-4.871404647827148,2.107987880706787
1764634058571417600,4.24941748046875,-0.009199142456054688,-4.757536888122559,2.075791358947754
1764634058588170800,4.266170654296875,-0.4596257209777832,-4.620718955993652,2.005742311477661
1764634058604915700,4.282915771484375,-0.6852531433105469,-4.399741172790527,2.0270543098449707
1764634058621665800,4.299665771484375,-0.6395039558410645,-4.144257545471191,2.1079111099243164
1764634058638395100,4.31639501953125,-0.5484476089477539,-3.801363468170166,2.6603689193725586
1764634058655157000,4.333156982421875,-0.16413021087646484,-3.5615220069885254,2.4749574661254883
1764634058671902700,4.34990283203125,-0.23209905624389648,-3.7012200355529785,1.7291284799575806
1764634058688650500,4.366650390625,-0.11695623397827148,-3.731283187866211,1.0538605451583862
1764634058705399300,4.3833994140625,0.03788590431213379,-3.8517961502075195,0.7374539375305176
1764634058722138400,4.400138427734375,-0.26459789276123047,-3.7771363258361816,0.6571481227874756
1764634058738887400,4.416887451171875,-1.05668306350708,-3.766383171081543,0.301555871963501
1764634058755634700,4.433634765625,-1.7714520692825317,-3.5577473640441895,0.09844183921813965
1764634058772389600,4.4503896484375,-2.007704973220825,-3.2279934883117676,-0.043881893157958984
1764634058789125400,4.46712548828125,-1.561082363128662,-3.0609798431396484,0.009163856506347656
1764634058805875700,4.483875732421875,-1.23236083984375,-3.0569915771484375,0.11016130447387695
1764634058822621400,4.500621337890625,-0.971358060836792,-2.898404598236084,-0.016435623168945312
1764634058839368000,4.517367919921875,-0.609291672706604,-2.7446060180664062,-0.26163244247436523
1764634058856114700,4.53411474609375,-0.6287898421287537,-2.75083589553833,-0.6004157066345215
1764634058872861200,4.550861083984375,-0.8593167066574097,-2.7491979598999023,-0.8014883995056152
1764634058889623600,4.56762353515625,-1.5224428176879883,-2.639810562133789,-1.0698113441467285
1764634058906351000,4.58435107421875,-2.106472969055176,-2.480623245239258,-1.4371962547302246
1764634058923084800,4.601084716796875,-2.278592586517334,-2.4828033447265625,-1.662808895111084
1764634058939847200,4.61784716796875,-2.6508474349975586,-2.330094337463379,-1.5646748542785645
1764634058956593700,4.63459375,-2.9695682525634766,-1.9868803024291992,-1.5771598815917969
1764634058973340200,4.651340087890625,-2.8584189414978027,-1.8892130851745605,-1.7022252082824707
1764634058990086400,4.66808642578125,-2.3996798992156982,-1.8061323165893555,-1.5929145812988281
1764634059006849800,4.684849853515625,-1.790464162826538,-1.5009937286376953,-1.1143555641174316
1764634059023592400,4.701592529296875,-1.0830137729644775,-1.2984509468078613,-0.6232500076293945
1764634059040338400,4.71833837890625,-0.8638277053833008,-1.103269100189209,-0.2640113830566406
1764634059057085400,4.73508544921875,-0.8393049240112305,-0.8372259140014648,-0.08906078338623047
1764634059073832700,4.751832763671875,-0.8709096908569336,-0.6282577514648438,-0.0039272308349609375
1764634059090578200,4.768578125,-0.9064357280731201,-0.5126132965087891,-0.09384536743164062
1764634059107325200,4.7853251953125,-0.935082197189331,-0.5400567054748535,-0.1562819480895996
1764634059124071400,4.802071533203125,-1.1181316375732422,-0.7023138999938965,-0.12043476104736328
1764634059140813000,4.81881298828125,-1.1412899494171143,-0.7409992218017578,-0.08741188049316406
1764634059157569000,4.835569091796875,-1.0739891529083252,-0.7188940048217773,-0.2367382049560547
1764634059174311200,4.852311279296875,-0.9135634899139404,-0.7085919380187988,-0.4889984130859375
1764634059191057200,4.86905712890625,-0.5950548648834229,-0.706688404083252,-0.5526642799377441
1764634059207804400,4.885804443359375,-0.3842754364013672,-0.5876660346984863,-0.7332773208618164
1764634059224542200,4.902542236328125,0.3608206510543823,-0.4842681884765625,-0.876863956451416
1764634059241304300,4.91930419921875,1.1568570137023926,-0.4914846420288086,-1.0589323043823242
1764634059258043400,4.93604345703125,1.502122402191162,-0.5471935272216797,-1.0188488960266113
1764634059274787000,4.952787109375,1.1623826026916504,-0.6079721450805664,-0.8724460601806641
1764634059291519500,4.96951953125,0.4575573205947876,-0.8217878341674805,-0.7388601303100586
1764634059308273200,4.986273193359375,-0.682296633720398,-0.9935507774353027,-0.5639843940734863
1764634059325016000,5.00301611328125,-1.8138599395751953,-1.1726694107055664,-0.4485764503479004
1764634059341762600,5.019762451171875,-2.391880989074707,-1.3058204650878906,-0.35216236114501953
1764634059358508800,5.0365087890625,-2.483461380004883,-1.4891715049743652,-0.2567305564880371
1764634059375254000,5.05325390625,-2.492903709411621,-1.641838550567627,-0.22830724716186523
1764634059392003000,5.070003173828125,-2.213867425918579,-1.8583784103393555,-0.10021305084228516
1764634059408748800,5.086748779296875,-2.001891613006592,-1.8785638809204102,0.00877833366394043
1764634059425494500,5.10349462890625,-1.7357680797576904,-1.904848575592041,-0.08437323570251465
1764634059442238000,5.120238037109375,-1.330453634262085,-1.985677719116211,0.00028896331787109375
1764634059458991000,5.1369912109375,-0.8667218685150146,-2.1132936477661133,0.0951833724975586
1764634059475734500,5.153734619140625,-0.9025476574897766,-2.1781864166259766,0.10561275482177734
1764634059492480500,5.17048046875,-1.0664067268371582,-2.2265143394470215,0.23320603370666504
1764634059509225500,5.1872255859375,-0.5165235996246338,-2.1913719177246094,0.40590691566467285
1764634059525976000,5.20397607421875,-0.06063365936279297,-2.340053081512451,0.27524280548095703
1764634059542720500,5.220720458984375,-0.24474185705184937,-2.5355896949768066,-0.15112733840942383
1764634059559466800,5.237466796875,-0.7298754453659058,-2.78611421585083,-0.24321651458740234
1764634059576210200,5.254210205078125,-1.2303791046142578,-2.782994270324707,0.08622956275939941
1764634059592962300,5.27096240234375,-1.2396479845046997,-2.9243669509887695,0.35303258895874023
1764634059609689900,5.28768994140625,-0.857029914855957,-2.9328207969665527,0.7729887962341309
1764634059626452200,5.3044521484375,-0.033165693283081055,-2.90443754196167,1.0946259498596191
1764634059643198700,5.32119873046875,1.104562759399414,-3.0390172004699707,1.183727502822876
1764634059659941000,5.337941162109375,1.6551322937011719,-3.226423740386963,0.787714958190918
1764634059676697000,5.354697021484375,1.350679874420166,-3.3558263778686523,0.17459654808044434
1764634059693451500,5.371451416015625,0.7947230339050293,-3.2962841987609863,0.1915435791015625
1764634059710183400,5.388183349609375,0.8323855400085449,-3.264533519744873,0.26495790481567383
1764634059726933000,5.40493310546875,0.8949694633483887,-3.234525203704834,0.3842052221298218
1764634059743678500,5.421678466796875,0.8025083541870117,-3.069713592529297,0.47913599014282227
1764634059760420400,5.43842041015625,0.849639892578125,-2.9995322227478027,0.9247235059738159
1764634059777174800,5.4551748046875,1.5363516807556152,-3.143609046936035,0.7457023859024048
1764634059793917700,5.471917724609375,1.395951271057129,-3.3441214561462402,0.48839110136032104
1764634059810664200,5.488664306640625,1.064457893371582,-3.290677547454834,0.4922751188278198
1764634059827407400,5.505407470703125,1.074174404144287,-2.97709321975708,1.0894161462783813
1764634059844159700,5.52215966796875,1.7349133491516113,-2.7925636768341064,1.3911477327346802
1764634059860903200,5.538903076171875,2.0854525566101074,-2.657539129257202,1.456597089767456
1764634059877650400,5.555650390625,1.812215805053711,-2.955418109893799,1.4334667921066284
1764634059894396000,5.57239599609375,0.6720857620239258,-2.8582072257995605,1.729496955871582
1764634059911142700,5.589142578125,0.203399658203125,-2.549125909805298,2.027045249938965
1764634059927889400,5.605889404296875,1.072749137878418,-2.1865081787109375,2.081031084060669
1764634059944636200,5.62263623046875,2.0722131729125977,-1.9309396743774414,2.009597063064575
1764634059961382000,5.6393818359375,2.5261077880859375,-1.834726333618164,1.365647792816162
1764634059978145000,5.65614501953125,3.0614871978759766,-1.7380472421646118,0.08545088768005371
1764634059994888700,5.672888671875,4.013287544250488,-1.3689109086990356,-0.0933535099029541
1764634060011634400,5.689634521484375,4.344935417175293,-0.6764509677886963,0.6781160831451416
1764634060028381000,5.706380859375,3.9972572326660156,-0.08672404289245605,1.388155221939087
1764634060045128200,5.723128173828125,3.4293603897094727,0.012331724166870117,1.29864501953125
1764634060061874000,5.7398740234375,3.3724136352539062,-0.11750423908233643,0.9337582588195801
1764634060078621000,5.756620849609375,3.4008665084838867,-0.3021312952041626,0.6866631507873535
1764634060095347500,5.773347412109375,3.0381927490234375,-0.3478114604949951,0.774573802947998
1764634060112114000,5.790114013671875,2.0877161026000977,-0.47826075553894043,0.8176817893981934
1764634060128860700,5.806860595703125,1.2006988525390625,-0.6261197328567505,0.510770320892334
1764634060145602600,5.8236025390625,1.7866401672363281,-0.7312788367271423,0.536461353302002
1764634060162356500,5.8403564453125,3.2127890586853027,-0.8364337682723999,0.7602658271789551
1764634060179100000,5.857099853515625,3.939983367919922,-0.5649560689926147,0.841303825378418
1764634060195846000,5.873845947265625,3.310647964477539,-0.3368728458881378,0.7010183334350586
1764634060212593200,5.89059326171875,2.2549901008605957,-0.09172701835632324,0.3649754524230957
1764634060229322500,5.907322509765625,1.6124730110168457,-0.11930964142084122,0.23111534118652344
1764634060246068700,5.92406884765625,1.2266578674316406,-0.17244863510131836,0.19639110565185547
1764634060262822700,5.94082275390625,0.7763090133666992,-0.2642437517642975,0.1323246955871582
1764634060279565800,5.95756591796875,0.5108442306518555,-0.4931625723838806,0.030895233154296875
1764634060296311600,5.9743115234375,0.5322637557983398,-0.7334436178207397,-0.03661918640136719
1764634060313058600,5.99105859375,0.736356258392334,-0.9456000328063965,-0.15030574798583984
1764634060329785300,6.007785400390625,0.7546038627624512,-1.0955573320388794,-0.5220413208007812
1764634060346550300,6.02455029296875,0.8745570182800293,-0.9743571281433105,-0.44533252716064453
1764634060363297300,6.04129736328125,0.9306273460388184,-0.7413619160652161,-0.41728782653808594
1764634060380042000,6.0580419921875,0.796785831451416,-0.5566226243972778,-0.48940181732177734
1764634060396789800,6.074789794921875,0.8483066558837891,-0.3632354736328125,-0.4528064727783203
1764634060413541400,6.091541259765625,0.920997142791748,-0.26032960414886475,-0.16939496994018555
1764634060430283800,6.10828369140625,0.8651933670043945,0.10503435134887695,0.7186279296875
1764634060447030500,6.125030517578125,1.3088479042053223,0.6740230321884155,1.8747549057006836
1764634060463776800,6.14177685546875,2.020216464996338,0.668871283531189,1.786750316619873
1764634060480523500,6.1585234375,2.308459758758545,0.4499680995941162,1.1207184791564941
1764634060497269200,6.175269287109375,1.8294920921325684,-0.06794333457946777,0.18257570266723633
1764634060514016300,6.192016357421875,0.8209018707275391,-0.5388470888137817,-0.4586057662963867
1764634060530762800,6.2087626953125,0.1372547149658203,-0.821121096611023,-0.8274359703063965
1764634060547509500,6.225509521484375,-0.12433147430419922,-0.9531453847885132,-0.8854098320007324
1764634060564255500,6.24225537109375,-0.18403339385986328,-0.9117659330368042,-0.8911709785461426
1764634060581002000,6.259001953125,-0.016718387603759766,-0.8896434307098389,-0.841771125793457
1764634060597764000,6.27576416015625,0.25109004974365234,-0.6915192604064941,-0.7403326034545898
1764634060614508300,6.29250830078125,0.38245153427124023,-0.5624772310256958,-0.607795238494873
1764634060631255000,6.309255126953125,0.6064581871032715,-0.4566478729248047,-0.34421348571777344
1764634060647989800,6.32598974609375,0.9669480323791504,-0.24686872959136963,-0.021881103515625
1764634060664747300,6.342747314453125,0.9758234024047852,-0.15998876094818115,0.13544368743896484
1764634060681478100,6.35947802734375,0.843778133392334,-0.11733865737915039,0.2694277763366699
1764634060698227200,6.376227294921875,0.8548355102539062,-0.15442359447479248,0.3224520683288574
1764634060714974000,6.392973876953125,0.8877487182617188,-0.3387880325317383,0.2055349349975586
1764634060731720200,6.40972021484375,0.8213863372802734,-0.4849461317062378,-0.04673337936401367
1764634060748467200,6.42646728515625,0.8341808319091797,-0.5805774927139282,-0.20015811920166016
1764634060765213000,6.443212890625,0.9149899482727051,-0.6299530863761902,-0.17271852493286133
1764634060781959400,6.45995947265625,0.8298430442810059,-0.6392177939414978,-0.11286067962646484
1764634060798706200,6.4767060546875,0.6519584655761719,-0.527556836605072,-0.06458330154418945
1764634060815453000,6.493452880859375,0.9680967330932617,-0.3594534397125244,0.14900684356689453
1764634060832194800,6.51019482421875,1.6435160636901855,-0.1408957839012146,0.5785870552062988
1764634060848949800,6.52694970703125,2.2687487602233887,0.00543665885925293,1.1141610145568848
1764634060865681000,6.543680908203125,2.6979212760925293,0.2049558460712433,1.426872730255127
1764634060882443000,6.560443115234375,3.1691465377807617,0.40831515192985535,1.528231143951416
1764634060899190300,6.577190185546875,3.9635491371154785,0.5748832821846008,1.9643115997314453
1764634060915931400,6.593931396484375,4.536706924438477,0.7341110110282898,2.525177001953125
1764634060932665600,6.61066552734375,4.780665874481201,0.7008071541786194,2.715592861175537
1764634060949428500,6.627428466796875,5.476158618927002,0.37820369005203247,2.854461193084717
1764634060966155300,6.6441552734375,5.496515274047852,-0.13878238201141357,2.926501750946045
1764634060982917400,6.66091748046875,4.838427543640137,-0.776407778263092,2.614802360534668
1764634060999663900,6.677663818359375,3.9205875396728516,-1.4067729711532593,2.1351318359375
1764634061016395300,6.694395263671875,3.4902591705322266,-1.9903502464294434,1.4606385231018066
1764634061033156900,6.711156982421875,3.60809326171875,-2.52089262008667,1.098374843597412
1764634061049889000,6.727888916015625,3.604865074157715,-2.8137075901031494,1.1307544708251953
1764634061066645000,6.74464501953125,3.3524580001831055,-3.079343795776367,1.1678791046142578
1764634061083396900,6.76139697265625,2.977975845336914,-3.3184187412261963,1.2452855110168457
1764634061100142600,6.778142578125,2.692843437194824,-3.431788682937622,1.468324899673462
1764634061116889300,6.794889404296875,2.6802978515625,-3.4586246013641357,1.7576768398284912
1764634061133634600,6.811634521484375,2.3824462890625,-3.6605329513549805,1.939218521118164
1764634061150396000,6.82839599609375,1.9754867553710938,-3.7090911865234375,2.140241861343384
1764634061167125200,6.845125244140625,1.813913345336914,-3.810262680053711,2.143894672393799
1764634061183875000,6.861875,1.6601338386535645,-3.9940543174743652,2.0588676929473877
1764634061200621800,6.878621826171875,1.6130867004394531,-4.080971717834473,2.19580078125
1764634061217368600,6.89536865234375,1.3029799461364746,-4.050861358642578,2.5166258811950684
1764634061234114300,6.9121142578125,1.1016345024108887,-4.176650047302246,2.420219898223877
1764634061250861300,6.928861328125,0.8995623588562012,-4.47169303894043,1.911027193069458
1764634061267603200,6.945603271484375,0.6365408897399902,-4.659465789794922,1.504751443862915
1764634061284354600,6.9623544921875,0.7601709365844727,-4.656172752380371,1.30031418800354
1764634061301100300,6.979100341796875,0.5651426315307617,-4.743087291717529,1.4025325775146484
1764634061317847000,6.995846923828125,-0.25104522705078125,-4.604927062988281,1.2592394351959229
1764634061334579000,7.012578857421875,-0.45122241973876953,-4.477311134338379,1.3535597324371338
1764634061351340300,7.02934033203125,-0.9651217460632324,-4.339626789093018,1.4554312229156494
1764634061368086300,7.046086181640625,-1.8124017715454102,-4.133755207061768,1.530334234237671
1764634061384832800,7.062832763671875,-2.3542428016662598,-3.8418941497802734,1.438120722770691
1764634061401564200,7.079564208984375,-2.769432544708252,-3.629000663757324,1.0974568128585815
1764634061418326300,7.096326171875,-3.00276780128479,-3.3699612617492676,0.7520508766174316
1764634061435069400,7.1130693359375,-3.0614943504333496,-3.1953930854797363,0.5101420879364014
1764634061451812900,7.129812744140625,-2.5041537284851074,-3.08156156539917,0.4105112552642822
1764634061468546300,7.14654638671875,-1.7888952493667603,-2.9068150520324707,0.28723621368408203
1764634061485325600,7.16332568359375,-1.9649972915649414,-2.768641948699951,0.022952795028686523
1764634061502039300,7.180039306640625,-2.249563455581665,-2.582179546356201,-0.38712143898010254
1764634061518812000,7.19681201171875,-2.5724496841430664,-2.413975238800049,-0.8194606304168701
1764634061535576300,7.213576416015625,-2.5500550270080566,-2.159092426300049,-1.314215898513794
1764634061552316400,7.23031640625,-2.3299684524536133,-1.9229669570922852,-1.6880364418029785
1764634061577774000,7.255774169921875,-1.8369778394699097,-1.8566703796386719,-1.5872457027435303
1764634061594163700,7.272163818359375,-1.9336352348327637,-1.7543320655822754,-1.400681972503662
1764634061610903800,7.28890380859375,-2.1105122566223145,-1.6291322708129883,-1.2663846015930176
1764634061627660300,7.305660400390625,-2.1575026512145996,-1.2270050048828125,-0.7873365879058838
1764634061644403700,7.32240380859375,-2.1181068420410156,-0.9432439804077148,-0.4572005271911621
1764634061661150000,7.33914990234375,-2.056978464126587,-0.8091983795166016,-0.2924487590789795
1764634061677896700,7.355896728515625,-1.925168752670288,-0.5296335220336914,0.6224324703216553
1764634061694642400,7.372642333984375,-1.814530372619629,-0.23973369598388672,1.1344646215438843
1764634061711406300,7.38940625,-1.5095674991607666,-0.32316017150878906,0.4961421489715576
1764634061728129000,7.40612890625,-1.3445098400115967,-0.607151985168457,-0.16975975036621094
1764634061744892200,7.42289208984375,-1.4073985815048218,-0.5291929244995117,-0.3014678955078125
1764634061761628700,7.439628662109375,-1.5896458625793457,-0.4631643295288086,-0.45993757247924805
1764634061778375400,7.45637548828125,-1.0273045301437378,-0.36108970642089844,-0.4536478519439697
1764634061795121400,7.473121337890625,-0.6131634712219238,-0.4696493148803711,-0.5698750019073486
1764634061811868700,7.48986865234375,-0.2655414342880249,-0.5565519332885742,-0.5450873374938965
1764634061828614400,7.506614501953125,-0.07204121351242065,-0.5344448089599609,-0.4624593257904053
1764634061845361400,7.523361328125,-0.2560168504714966,-0.5329380035400391,-0.48501038551330566
1764634061862092000,7.540092041015625,-0.5631838440895081,-0.44047069549560547,-0.5835866928100586
1764634061878854400,7.5568544921875,-0.4386340379714966,-0.4484109878540039,-0.7767922878265381
1764634061895600400,7.573600341796875,-0.15370625257492065,-0.4616985321044922,-0.7626762390136719
1764634061912332000,7.59033203125,0.18107539415359497,-0.6098232269287109,-0.7088243961334229
1764634061929093400,7.60709326171875,0.016051173210144043,-0.798100471496582,-0.7244915962219238
1764634061945840400,7.62384033203125,-0.7277089953422546,-0.9500961303710938,-0.8544759750366211
1764634061962624500,7.64062451171875,-1.6231235265731812,-0.990692138671875,-0.792133092880249
1764634061979346000,7.657345947265625,-2.3148984909057617,-0.904170036315918,-0.5729975700378418
1764634061996092200,7.674092041015625,-2.6190123558044434,-0.8887205123901367,-0.38094282150268555
1764634062012823000,7.690822998046875,-2.773038864135742,-1.1253490447998047,-0.18427348136901855
1764634062029572400,7.707572265625,-2.936558485031128,-1.531412124633789,-0.09336233139038086
1764634062046319400,7.7243193359375,-3.6738882064819336,-1.7897720336914062,-0.1359415054321289
1764634062063065300,7.7410654296875,-4.031825065612793,-1.839719295501709,0.13765597343444824
1764634062079812000,7.75781201171875,-3.807621955871582,-1.8952689170837402,0.21858572959899902
1764634062096558000,7.77455810546875,-2.9365265369415283,-2.24916410446167,-0.12572264671325684
1764634062113317000,7.791317138671875,-1.9234914779663086,-2.7047858238220215,-0.38466858863830566
1764634062130050600,7.808050537109375,-1.0709952116012573,-2.9826321601867676,-0.18032097816467285
1764634062146811000,7.824810791015625,-0.6299928426742554,-3.0861382484436035,0.017950057983398438
1764634062163552000,7.841552001953125,-0.7794226408004761,-2.81404972076416,0.3524057865142822
1764634062180292000,7.8582919921875,-1.3575680255889893,-2.919417381286621,-0.07738757133483887
1764634062197049900,7.8750498046875,-1.5641487836837769,-2.861410140991211,0.0031998157501220703
1764634062213777700,7.891777587890625,-0.8727917671203613,-3.012697219848633,0.1123344898223877
1764634062230533600,7.90853369140625,0.2067110538482666,-3.243847370147705,0.28069353103637695
1764634062247277000,7.925277099609375,1.0892257690429688,-3.418813705444336,0.23784542083740234
1764634062264019000,7.94201904296875,0.4750528335571289,-3.1322522163391113,0.49115049839019775
1764634062280774000,7.95877392578125,-0.2999229431152344,-2.9810914993286133,0.6891372203826904
1764634062297516000,7.97551611328125,-0.1815958023071289,-2.8029427528381348,1.1989192962646484
1764634062314259500,7.992259521484375,0.4870314598083496,-2.944851875305176,1.1390037536621094
1764634062331013000,8.00901318359375,0.9147448539733887,-3.0804319381713867,0.9571099281311035
1764634062347755800,8.025755859375,0.4997587203979492,-3.0981264114379883,0.8972610235214233
1764634062364498000,8.042497802734376,0.22806119918823242,-3.2460899353027344,0.9663625955581665
1764634062381253000,8.059253173828125,0.10850334167480469,-3.4596598148345947,0.619797945022583
1764634062397976000,8.07597607421875,0.3312067985534668,-3.5573437213897705,0.35665979981422424
1764634062414745600,8.09274560546875,0.7213239669799805,-3.583204984664917,0.45929500460624695
1764634062431488000,8.109488037109376,1.361668586730957,-3.362147331237793,0.9459824562072754
1764634062448235000,8.126235107421875,1.6165990829467773,-3.106283187866211,1.0495102405548096
1764634062464980700,8.142980712890624,1.7941169738769531,-2.837409257888794,0.9112263321876526
1764634062481728000,8.15972802734375,1.653590202331543,-2.417863607406616,1.4274213314056396
1764634062498473700,8.1764736328125,1.8378381729125977,-2.1100077629089355,1.7604408264160156
1764634062515220500,8.193220458984374,2.521042823791504,-1.8759019374847412,1.6714290380477905
1764634062531967200,8.20996728515625,2.9814109802246094,-1.5946812629699707,2.0561299324035645
1764634062548714000,8.2267138671875,3.2352027893066406,-1.3984923362731934,1.7645881175994873
1764634062565459700,8.243459716796876,2.9341087341308594,-1.0925142765045166,1.997711181640625
1764634062582204400,8.260204345703125,3.05914306640625,-0.9126706123352051,1.7930481433868408
1764634062598966000,8.276966064453125,3.656839370727539,-0.6949512958526611,1.999467134475708
1764634062615696400,8.2936962890625,3.2403526306152344,-0.7504937648773193,1.5609591007232666
1764634062632445700,8.31044580078125,2.071290969848633,-0.850966215133667,1.130500316619873
1764634062649192400,8.3271923828125,0.8743629455566406,-0.9327482581138611,0.8146524429321289
1764634062665938700,8.343938720703125,1.0127897262573242,-0.9685285687446594,0.6685695648193359
1764634062682685700,8.360685791015625,2.689157485961914,-0.9056518077850342,0.8045082092285156
1764634062699431400,8.377431396484376,3.886354446411133,-0.7235220074653625,0.88797926902771
1764634062716176400,8.39417626953125,4.039813041687012,-0.5474029779434204,0.6007676124572754
1764634062732921600,8.410921630859375,2.850963592529297,-0.5864473581314087,-0.07454538345336914
1764634062749671400,8.42767138671875,1.3753623962402344,-0.7050986886024475,-0.4479484558105469
1764634062766417400,8.44441748046875,0.617619514465332,-0.7259378433227539,-0.41745662689208984
1764634062783164400,8.461164306640624,0.5950222015380859,-0.6107010841369629,-0.047223567962646484
1764634062799910400,8.477910400390625,0.837458610534668,-0.4717246890068054,0.3947463035583496
1764634062816657700,8.49465771484375,1.178288459777832,-0.2148919701576233,0.7555041313171387
1764634062833404000,8.51140380859375,1.677988052368164,-0.15814508497714996,0.6471614837646484
1764634062850134800,8.528134765625,2.022134780883789,-0.3376131057739258,0.11537933349609375
1764634062866897000,8.54489697265625,1.8652191162109375,-0.3715056777000427,-0.28318071365356445
1764634062883643400,8.561643310546875,1.677811622619629,-0.2513430714607239,0.05202627182006836
1764634062900389400,8.578389404296875,1.375612735748291,-0.03973203897476196,0.5088105201721191
1764634062917134000,8.595134033203125,1.2162299156188965,-0.012805461883544922,0.7709760665893555
1764634062933879300,8.61187939453125,1.3611364364624023,0.012802839279174805,0.798896312713623
1764634062950629600,8.628629638671875,1.4555530548095703,-0.10638147592544556,0.6227631568908691
1764634062967375400,8.645375244140626,1.5446381568908691,-0.2700785994529724,0.37734317779541016
1764634062984122000,8.6621220703125,1.2913031578063965,-0.29671192169189453,0.1854710578918457
1764634063000852700,8.678852783203125,0.9087300300598145,-0.3509780168533325,-0.08232784271240234
1764634063017615400,8.695615478515625,0.6047234535217285,-0.3797038793563843,-0.26414918899536133
1764634063034361300,8.712361328125,0.23375988006591797,-0.41895270347595215,-0.4264516830444336
1764634063051108600,8.729108642578124,-0.12264585494995117,-0.38850831985473633,-0.45403337478637695
1764634063067854800,8.745854736328125,-0.2849869728088379,-0.31295084953308105,-0.10032510757446289
1764634063084601600,8.7626015625,-0.14167213439941406,-0.15384888648986816,0.2389383316040039
1764634063101347000,8.77934716796875,0.04918622970581055,-0.19473683834075928,0.19434785842895508
1764634063118110000,8.79610986328125,0.284912109375,-0.32295215129852295,-0.030508995056152344
1764634063134834700,8.812834716796875,0.29178762435913086,-0.4134429693222046,-0.19071245193481445
1764634063151600400,8.829600341796874,0.10799980163574219,-0.44384706020355225,-0.03985309600830078
1764634063168356900,8.84635693359375,0.0667572021484375,-0.33717477321624756,0.30916929244995117
1764634063185092600,8.863092529296875,0.27001094818115234,-0.14929866790771484,0.6095438003540039
1764634063201824000,8.879823974609375,0.7954921722412109,-0.03461050987243652,0.868128776550293
1764634063218570000,8.896570068359376,1.6023540496826172,0.1853032112121582,0.9266009330749512
1764634063235319000,8.913319091796875,1.9727497100830078,0.2439645528793335,0.8699216842651367
1764634063252066000,8.930066162109375,2.1683578491210938,0.3805506229400635,0.7881941795349121
1764634063268811800,8.946811767578126,2.106233596801758,0.42031383514404297,0.9350013732910156
1764634063285555500,8.963555419921875,1.996229648590088,0.5026409029960632,1.15049409866333
1764634063302308600,8.98030859375,2.012878894805908,0.49009716510772705,1.3609485626220703
1764634063319060700,8.997060791015626,1.7270841598510742,0.3503382205963135,1.2367658615112305
1764634063335782400,9.013782470703125,1.588798999786377,0.18736815452575684,1.0099477767944336
1764634063352545300,9.030545166015624,1.2821788787841797,-0.01942574977874756,0.7278766632080078
1764634063369299200,9.04729931640625,1.1991071701049805,-0.249963641166687,0.47798824310302734
1764634063386032000,9.0640322265625,1.1407809257507324,-0.3682428002357483,0.2911100387573242
1764634063402793700,9.080793701171874,1.355447769165039,-0.46868711709976196,0.20538759231567383
1764634063419521000,9.09752099609375,1.7248106002807617,-0.5400553345680237,0.22284650802612305
1764634063436276700,9.11427685546875,2.095855236053467,-0.581267237663269,0.33278322219848633
1764634063453024000,9.13102392578125,2.294999122619629,-0.5757853984832764,0.5462322235107422
1764634063469754400,9.14775439453125,2.5807390213012695,-0.5250365734100342,0.8190546035766602
1764634063486517000,9.16451708984375,3.10629940032959,-0.5077319145202637,1.1038031578063965
1764634063503262500,9.181262451171875,3.482041358947754,-0.49518823623657227,1.431351661682129
1764634063520007400,9.19800732421875,3.6046533584594727,-0.3809625804424286,1.8308887481689453
1764634063536769300,9.214769287109375,3.389436721801758,-0.438118577003479,1.9688477516174316
1764634063553515300,9.231515380859374,3.3978891372680664,-0.568126916885376,2.171250820159912
1764634063570243000,9.2482431640625,3.6112003326416016,-0.8591829538345337,2.3929781913757324
1764634063587008500,9.265008544921875,3.7293472290039062,-1.1066948175430298,2.5026302337646484
1764634063603750400,9.28175048828125,3.1577138900756836,-1.1738053560256958,2.40036678314209
1764634063620471000,9.298470947265624,2.320840835571289,-1.4228973388671875,2.294647693634033
1764634063637234400,9.315234375,2.079117774963379,-1.6756980419158936,2.224501132965088
1764634063653982000,9.33198193359375,2.250204086303711,-2.022191047668457,1.8938531875610352
1764634063670727700,9.348727783203126,2.311006546020508,-2.413579225540161,1.499025821685791
1764634063687474700,9.365474609375,2.166118621826172,-2.6995742321014404,1.2643992900848389
1764634063704220400,9.382220458984374,1.8406810760498047,-2.8285269737243652,1.4385278224945068
1764634063720970000,9.398969970703124,1.6186542510986328,-2.8881850242614746,1.6922743320465088
1764634063737713700,9.415713623046875,1.3562827110290527,-2.9148828983306885,1.8100168704986572
1764634063754461000,9.4324609375,1.4728612899780273,-3.1675963401794434,1.4845271110534668
1764634063771206400,9.449206298828125,1.5886921882629395,-3.324363946914673,1.1312830448150635
1764634063787953400,9.465953369140625,1.0865287780761719,-3.5706238746643066,1.0539577007293701
1764634063804699600,9.48269970703125,1.1948165893554688,-3.686126470565796,0.8884530067443848
1764634063821446400,9.4994462890625,1.1288537979125977,-3.7635605335235596,1.022338628768921
1764634063838192400,9.5161923828125,0.38048839569091797,-3.8655617237091064,0.9829541444778442
1764634063854939400,9.532939453125,0.13828372955322266,-3.8538312911987305,0.8569623231887817
1764634063871685400,9.549685302734375,-0.3158726692199707,-3.874892473220825,0.6872094869613647
1764634063888432600,9.5664326171875,-0.7456250190734863,-3.9034979343414307,0.40481558442115784
1764634063905175300,9.58317529296875,-1.213758945465088,-3.9481706619262695,0.09543416649103165
1764634063921922800,9.5999228515625,-1.7929003238677979,-3.787930965423584,0.2649385631084442
1764634063938684400,9.616684326171875,-1.5764458179473877,-3.3950448036193848,0.5568394660949707
1764634063955431400,9.633431396484376,-1.161743402481079,-3.1081972122192383,0.7254967093467712
1764634063972168700,9.650168701171875,-0.9218571186065674,-3.1676316261291504,0.4977005422115326
1764634063988906000,9.666906005859374,-1.268233060836792,-3.219137668609619,0.12426936626434326
1764634064005672700,9.683672607421874,-1.542689561843872,-3.1103439331054688,-0.1816723346710205
1764634064022399500,9.7003994140625,-1.9516870975494385,-2.864257335662842,-0.22866177558898926
1764634064039149600,9.717149658203125,-2.4789061546325684,-2.5360922813415527,-0.4042201042175293
1764634064055897000,9.73389697265625,-2.22544264793396,-2.285778045654297,-0.5660042762756348
1764634064072643000,9.75064306640625,-1.3585695028305054,-2.239657402038574,-0.5571627616882324
1764634064089390300,9.767390380859375,-1.6126048564910889,-2.1789956092834473,-0.4534599781036377
1764634064106133200,9.78413330078125,-2.072010040283203,-2.1153697967529297,-0.46870899200439453
1764634064122867000,9.800866943359376,-2.732208728790283,-1.7477622032165527,-0.3703038692474365
1764634064139612200,9.817612060546875,-2.9430952072143555,-1.495737075805664,-0.2435319423675537
1764634064156375300,9.834375244140626,-3.0286288261413574,-1.2175874710083008,-0.23357510566711426
1764634064173120300,9.851120361328125,-2.805525779724121,-0.9823827743530273,-0.07854080200195312
1764634064189856000,9.86785595703125,-2.536482810974121,-0.7963933944702148,-0.040488481521606445
1764634064206608600,9.884608642578126,-2.1642544269561768,-0.6383113861083984,-0.22049975395202637
1764634064223362000,9.901362060546875,-1.2426719665527344,-0.4659080505371094,-0.28711867332458496
1764634064240098300,9.918098388671876,-0.7837270498275757,-0.4611082077026367,-0.2456655502319336
1764634064256858000,9.934858154296874,-0.8503730297088623,-0.45272254943847656,-0.19971776008605957
1764634064273600800,9.951600830078124,-0.8425812721252441,-0.28519248962402344,-0.17052745819091797
1764634064290336300,9.968336181640625,-0.22278505563735962,-0.11953926086425781,-0.11522626876831055
1764634064307093800,9.98509375,0.10427676141262054,-0.2530221939086914,-0.31028127670288086
1764634064323841300,10.00184130859375,-0.05152570456266403,-0.3738889694213867,-0.5619699954986572
1764634064340584200,10.018584228515625,-0.29511570930480957,-0.4279956817626953,-0.5847673416137695
1764634064357358300,10.0353583984375,-0.6613930463790894,-0.4166889190673828,-0.5647792816162109
1764634064374068500,10.052068359375,-0.7936850190162659,-0.44922351837158203,-0.5471436977386475
1764634064390836200,10.068836181640625,-0.6637418866157532,-0.46319103240966797,-0.4621396064758301
1764634064407556400,10.085556396484375,-0.7945080995559692,-0.4785614013671875,-0.3416574001312256
1764634064424316700,10.102316650390625,-0.864032506942749,-0.5031280517578125,-0.3449852466583252
1764634064441066000,10.11906591796875,-0.8224222660064697,-0.5095996856689453,-0.4131815433502197
1764634064457812700,10.135812744140624,-0.6443901062011719,-0.45935726165771484,-0.34610605239868164
1764634064474558700,10.152558837890625,-0.6343615651130676,-0.38658714294433594,-0.476121187210083
1764634064491306000,10.169305908203125,-0.28492510318756104,-0.27097606658935547,-0.3894386291503906
1764634064508051700,10.1860517578125,0.20377664268016815,-0.20339393615722656,-0.3170802593231201
1764634064524814800,10.20281494140625,0.4514612853527069,-0.2555561065673828,-0.35783839225769043
1764634064541557800,10.219557861328125,0.3899195194244385,-0.37990474700927734,-0.39876532554626465
1764634064558286300,10.236286376953124,-0.19184699654579163,-0.3961362838745117,-0.4645266532897949
1764634064575050500,10.253050537109376,-0.8761477470397949,-0.4176492691040039,-0.5939171314239502
1764634064591794400,10.26979443359375,-1.422147274017334,-0.4835491180419922,-0.6364362239837646
1764634064608547600,10.286547607421875,-1.6327924728393555,-0.5393209457397461,-0.5580570697784424
1764634064625274400,10.3032744140625,-1.6339173316955566,-0.6530027389526367,-0.5230276584625244
1764634064642022400,10.3200224609375,-1.7209174633026123,-0.8777570724487305,-0.5276789665222168
1764634064658772000,10.33677197265625,-1.9898990392684937,-0.9878482818603516,-0.5937368869781494
1764634064675517000,10.353516845703124,-2.1468353271484375,-0.9795875549316406,-0.3919823169708252
1764634064692263700,10.370263671875,-2.1341018676757812,-0.997650146484375,-0.4208235740661621
1764634064709009700,10.387009765625,-1.7267193794250488,-0.926671028137207,-0.33034515380859375
1764634064725753000,10.403753173828125,-1.2665376663208008,-0.9197101593017578,-0.25597548484802246
1764634064742506200,10.42050634765625,-0.9616997241973877,-1.0348234176635742,-0.3094930648803711
1764634064759243800,10.437243896484375,-1.134240984916687,-1.1779155731201172,-0.3586561679840088
1764634064775995600,10.45399560546875,-1.5070011615753174,-1.24267578125,-0.28064918518066406
1764634064792740900,10.470740966796875,-1.852927803993225,-1.2210016250610352,-0.24397015571594238
1764634064809486300,10.487486328125,-1.6658382415771484,-1.3236970901489258,-0.2360227108001709
1764634064826239500,10.504239501953125,-1.1766047477722168,-1.4264488220214844,-0.21309161186218262
1764634064842977500,10.5209775390625,-0.7688897848129272,-1.6228108406066895,-0.19356560707092285
1764634064859732200,10.537732177734375,-0.6732639074325562,-1.7942113876342773,-0.20504021644592285
1764634064876470800,10.554470703125,-0.8565211296081543,-1.8939547538757324,-0.2898249626159668
1764634064893223700,10.5712236328125,-1.6237194538116455,-1.9502925872802734,-0.21745574474334717
1764634064909974800,10.587974853515625,-1.9181479215621948,-2.0315794944763184,0.045884013175964355
1764634064926730500,10.60473046875,-1.25600004196167,-2.0061635971069336,0.35198867321014404
1764634064943468300,10.62146826171875,-0.45509815216064453,-2.147183895111084,0.1362156867980957
1764634064960224500,10.638224609375,-0.42710041999816895,-2.1110763549804688,0.1919093132019043
1764634064976966400,10.65496630859375,-0.23457098007202148,-2.0774784088134766,0.4902939796447754
1764634064993712000,10.671712158203125,-0.135040283203125,-2.0589871406555176,0.7648683786392212
1764634065010456000,10.6884560546875,-0.06889486312866211,-2.272101402282715,0.6698130369186401
1764634065027195000,10.70519482421875,-0.3080124855041504,-2.186629295349121,0.7458757162094116
1764634065043939000,10.72193896484375,-1.1054086685180664,-2.221169948577881,0.7050614356994629
1764634065060686300,10.738686279296875,-1.227574348449707,-2.3416128158569336,0.6128121018409729
1764634065077428500,10.755428466796875,-0.3454265594482422,-2.648136615753174,0.2659277021884918
1764634065094183200,10.77218310546875,0.8633918762207031,-2.858241081237793,-0.08602601289749146
1764634065110925300,10.78892529296875,0.5494909286499023,-2.93057918548584,0.06804884970188141
1764634065127672300,10.80567236328125,-0.722559928894043,-2.838472366333008,0.6174823045730591
1764634065144418600,10.82241845703125,-1.1338458061218262,-2.624103307723999,1.341834545135498
1764634065161150500,10.839150390625,0.6014275550842285,-2.4879138469696045,1.7611864805221558
1764634065177828600,10.85582861328125,2.8311314582824707,-2.249850273132324,1.6646744012832642
1764634065194658000,10.872657958984375,3.5644893646240234,-1.9835164546966553,0.9730172753334045
1764634065211402800,10.88940283203125,2.772705078125,-1.7443325519561768,0.7264773845672607
1764634065228152600,10.906152587890626,1.9107484817504883,-1.5260698795318604,0.7304418087005615
1764634065244897000,10.92289697265625,1.6418228149414062,-1.3437259197235107,0.4218379259109497
1764634065261643800,10.939643798828126,1.3935747146606445,-1.0868852138519287,0.4444446563720703
1764634065278386400,10.956386474609374,1.3240108489990234,-0.9402039051055908,0.728684663772583
1764634065295141000,10.97314111328125,1.6493310928344727,-0.6557738780975342,1.244309425354004
1764634065311883000,10.989883056640625,1.5228843688964844,-0.6998233795166016,1.1609500646591187
1764634065328629200,11.006629150390625,1.4512443542480469,-0.7808613777160645,1.340877890586853
1764634065345376300,11.023376220703126,2.050734519958496,-0.7405591011047363,1.265620470046997
1764634065362139600,11.0401396484375,2.526519775390625,-0.6994271278381348,1.1902875900268555
1764634065378881800,11.0568818359375,2.9130430221557617,-0.5375339984893799,0.9354755878448486
1764634065395628800,11.07362890625,2.3976287841796875,-0.43629491329193115,0.812091588973999
1764634065412375600,11.09037548828125,1.65460205078125,-0.3575969934463501,0.6828460693359375
1764634065429122000,11.1071220703125,1.363835334777832,-0.49232935905456543,0.39919161796569824
1764634065445863000,11.12386279296875,1.473414421081543,-0.6319738626480103,0.18895840644836426
1764634065462603300,11.140603271484375,1.6782941818237305,-0.7960838675498962,0.08950042724609375
1764634065479348000,11.157347900390626,1.2756681442260742,-0.859459638595581,-0.008260965347290039
1764634065496095200,11.17409521484375,0.6257247924804688,-0.8982428908348083,-0.05937480926513672
1764634065512837000,11.190837158203125,0.8780088424682617,-0.7770819067955017,0.15845394134521484
1764634065529591800,11.207591796875,1.7283000946044922,-0.594343900680542,0.2871112823486328
1764634065546333700,11.224333740234375,2.4228782653808594,-0.5663292407989502,-0.00816488265991211
1764634065563093500,11.241093505859375,2.081388473510742,-0.5929691791534424,-0.6177992820739746
1764634065579846700,11.2578466796875,1.0723466873168945,-0.5768070220947266,-0.9422852993011475
1764634065596582700,11.274582763671875,0.2817544937133789,-0.47170811891555786,-0.8500077724456787
1764634065613332700,11.291332763671875,-0.1523294448852539,-0.40719136595726013,-0.5467605590820312
1764634065630062300,11.308062255859374,-0.2316598892211914,-0.4089561104774475,-0.22493934631347656
1764634065646825500,11.324825439453125,-0.2539196014404297,-0.6282776594161987,-0.15830183029174805
1764634065663572500,11.341572509765625,-0.1594562530517578,-0.821621298789978,-0.40431880950927734
1764634065680318700,11.358318603515626,-0.13260173797607422,-0.9218126535415649,-0.7271909713745117
1764634065697049900,11.3750498046875,-0.04817008972167969,-1.014315128326416,-1.170304775238037
1764634065713798700,11.391798583984375,0.07832527160644531,-1.025866985321045,-0.9364752769470215
1764634065730546000,11.4085458984375,0.6235384941101074,-0.5841038227081299,-0.43262338638305664
1764634065747292000,11.4252919921875,1.3451824188232422,-0.3491278886795044,-0.14335107803344727
1764634065764038700,11.44203857421875,1.8109922409057617,-0.2191861867904663,-0.061532020568847656
1764634065780785000,11.458784912109374,2.1628198623657227,-0.07307744026184082,0.06509065628051758
1764634065797535200,11.47553515625,2.2654643058776855,0.00043213367462158203,0.25909996032714844
1764634065814290400,11.49229052734375,2.110874652862549,0.08795583248138428,1.469149112701416
1764634065831038000,11.509037841796875,1.7588691711425781,0.6406790018081665,2.511538505554199
1764634065847783200,11.525783203125,1.3975725173950195,0.899225115776062,2.70109224319458
1764634065864530400,11.542530517578125,1.1891493797302246,0.9432553052902222,2.536616325378418
1764634065881260500,11.559260498046875,1.297104835510254,0.7773035764694214,2.2602720260620117
1764634065898013400,11.576013427734376,1.263392448425293,0.5830785036087036,1.9646849632263184
1764634065914756600,11.592756591796874,0.4028029441833496,0.29952287673950195,1.314368724822998
1764634065931503900,11.60950390625,-0.42005062103271484,0.08023691177368164,0.8329243659973145
1764634065948252200,11.626252197265625,-0.8372311592102051,-0.06479120254516602,0.4147305488586426
1764634065964996400,11.642996337890626,-0.8132524490356445,-0.25407910346984863,-0.0004291534423828125
1764634065981758700,11.6597587890625,-0.5237736701965332,-0.4498586654663086,-0.38475656509399414
1764634065998475500,11.6764755859375,-0.24984455108642578,-0.5867929458618164,-0.6184482574462891
1764634066015248100,11.693248046875,-0.12643146514892578,-0.594210147857666,-0.720609188079834
1764634066031996000,11.709995849609374,-0.17769098281860352,-0.5449185371398926,-0.6037473678588867
1764634066048741000,11.7267412109375,-0.0547175407409668,-0.42163753509521484,-0.5080094337463379
1764634066065488600,11.743488525390624,0.10214805603027344,-0.24380707740783691,-0.31485605239868164
1764634066082218000,11.760218017578126,0.3634161949157715,-0.0219724178314209,0.1383991241455078
1764634066098952000,11.776951904296874,1.0729618072509766,0.04449009895324707,0.2821536064147949
1764634066115714300,11.79371435546875,1.5834927558898926,0.030609607696533203,0.20631933212280273
1764634066132461600,11.810461669921875,1.4938011169433594,0.09990787506103516,0.038594722747802734
1764634066149192000,11.82719189453125,1.14296293258667,-0.052367210388183594,-0.2827014923095703
1764634066165954300,11.843954345703125,0.9833760261535645,-0.412858247756958,-0.7511863708496094
1764634066182700500,11.860700439453124,0.745720386505127,-0.591195821762085,-0.8872122764587402
1764634066199424800,11.8774248046875,0.38126230239868164,-0.5799028873443604,-0.9262180328369141
1764634066216193300,11.894193359375,-0.005644321441650391,-0.49503564834594727,-0.7942938804626465
1764634066232940500,11.9109404296875,-0.26770496368408203,-0.3800203800201416,-0.5887303352355957
1764634066249686300,11.927686279296875,-0.4108920097351074,-0.27533435821533203,-0.3652973175048828
1764634066266433500,11.94443359375,-0.4413166046142578,-0.06851816177368164,0.010591983795166016
1764634066283179500,11.961179443359375,-0.4526486396789551,0.11006593704223633,0.38193607330322266
1764634066299923700,11.977923828125,-0.49500179290771484,0.19107413291931152,0.5983619689941406
1764634066316685600,11.994685546875,-0.4823904037475586,0.18600010871887207,0.681884765625
1764634066333432800,12.011432861328124,-0.39931154251098633,0.15137171745300293,0.5609860420227051
1764634066350160400,12.028160400390625,-0.06588363647460938,0.023519515991210938,0.4041452407836914
1764634066366924800,12.0449248046875,0.5566082000732422,-0.13861846923828125,0.4046468734741211
1764634066383671600,12.061671630859376,1.123885154724121,-0.21870779991149902,0.21476316452026367
1764634066400417800,12.078417724609375,1.761343002319336,-0.21169614791870117,0.08615779876708984
1764634066417163500,12.09516357421875,2.5091195106506348,-0.1324772834777832,0.21836471557617188
1764634066433896400,12.111896484375,2.9591798782348633,-0.18912053108215332,0.2117624282836914
1764634066450654700,12.12865478515625,2.7129006385803223,-0.08389973640441895,0.41474151611328125
1764634066467404300,12.145404296875,1.9381604194641113,0.2670261859893799,1.201134204864502
1764634066484149500,12.1621494140625,1.4477448463439941,0.5418281555175781,1.7967534065246582
1764634066500889900,12.178889892578125,1.7976088523864746,0.66752028465271,2.1588492393493652
1764634066517643300,12.195643310546876,2.6055188179016113,0.7061134576797485,2.215705394744873
1764634066534389500,12.212389404296875,3.2946629524230957,0.5547388792037964,2.081300735473633
1764634066551117300,12.229117431640624,3.2735228538513184,0.32991087436676025,1.9618644714355469
1764634066567882500,12.245882568359375,3.203327178955078,0.1379401683807373,2.044538974761963
1764634066584629200,12.262629150390625,3.1033105850219727,0.0876624584197998,2.5223641395568848
1764634066601359600,12.279359619140624,3.042417526245117,-0.0015906095504760742,2.6838159561157227
1764634066618109000,12.29610888671875,2.9887046813964844,-0.4884636402130127,2.515709400177002
1764634066634856000,12.31285595703125,3.0012125968933105,-1.0259796380996704,2.1756434440612793
1764634066651602000,12.329601806640625,3.6933975219726562,-1.347594976425171,2.410390853881836
1764634066668349400,12.346349365234374,4.152644157409668,-1.4167159795761108,2.478370189666748
1764634066685095000,12.363094970703125,3.8104772567749023,-1.7301950454711914,2.4439706802368164
1764634066701835300,12.379835205078125,3.165041923522949,-2.0896530151367188,2.5811538696289062
1764634066718588200,12.396588134765626,2.645120620727539,-2.183870315551758,2.697375774383545
1764634066735334400,12.41333447265625,2.2785606384277344,-2.163992404937744,2.640334129333496
1764634066752081200,12.4300810546875,2.3031015396118164,-2.369957447052002,2.5914549827575684
1764634066768827600,12.44682763671875,2.4785079956054688,-2.6604061126708984,2.4849724769592285
1764634066785563600,12.463563720703124,2.359837532043457,-3.0129873752593994,2.358185291290283
1764634066802322200,12.480322265625,1.8526325225830078,-3.277770757675171,1.9321365356445312
1764634066819067100,12.497067138671875,1.2546520233154297,-3.6862454414367676,1.410590648651123
1764634066835814700,12.513814697265625,0.7674250602722168,-4.053572177886963,1.5409557819366455
1764634066852545300,12.530545166015624,0.5163874626159668,-3.9476141929626465,1.6175329685211182
1764634066869307100,12.54730712890625,0.4142889976501465,-4.530433654785156,1.0058019161224365
1764634066886052600,12.564052490234374,0.12029218673706055,-4.67086124420166,0.467731237411499
1764634066902797300,12.58079736328125,-0.34540462493896484,-4.796305179595947,0.47877955436706543
1764634066919539700,12.597539794921875,-0.7972426414489746,-4.832374095916748,0.003747105598449707
1764634066936306200,12.61430615234375,-0.975337028503418,-4.809287071228027,-0.29928863048553467
1764634066953021700,12.631021728515625,-1.1433191299438477,-4.6576247215271,0.12257826328277588
1764634066969781500,12.647781494140625,-1.3692364692687988,-4.336515426635742,0.2495468258857727
1764634066986516500,12.6645166015625,-1.5853276252746582,-4.027215003967285,0.07283297181129456
1764634067003278600,12.681278564453125,-1.6837396621704102,-3.623513698577881,-0.09587789326906204
1764634067020014300,12.698014404296876,-1.2813851833343506,-3.433866500854492,-0.4414934515953064
1764634067036771600,12.714771484375,-1.4810991287231445,-3.303164005279541,-1.0477033853530884
1764634067053522000,12.73152197265625,-1.4681692123413086,-3.077195644378662,-0.8596326112747192
1764634067070278000,12.74827783203125,-1.550818920135498,-2.6606078147888184,-0.4182150363922119
1764634067087023400,12.7650234375,-1.2874953746795654,-2.246438503265381,0.033442914485931396
1764634067103770400,12.781770263671875,-0.9904351234436035,-2.022325038909912,0.07089012861251831
1764634067120506400,12.79850634765625,-0.8098344802856445,-1.9879164695739746,-0.045537710189819336
1764634067137263600,12.815263671875,-1.0530775785446167,-1.9927434921264648,-0.02888023853302002
1764634067153991000,12.831990966796875,-1.6133582592010498,-1.9589428901672363,0.040605902671813965
1764634067170740500,12.848740478515625,-1.8247456550598145,-1.9192070960998535,0.012751340866088867
1764634067187492400,12.865492431640625,-2.2085459232330322,-1.900902271270752,-0.12896275520324707
1764634067204236500,12.882236572265626,-2.8639755249023438,-1.8041911125183105,-0.38880300521850586
1764634067220980700,12.898980712890625,-3.0009305477142334,-1.6690444946289062,-0.4344671964645386
1764634067237715700,12.9157158203125,-2.9610724449157715,-1.5085458755493164,-0.5648430585861206
1764634067254475300,12.932475341796875,-2.507429599761963,-1.3588981628417969,-0.6280874013900757
1764634067271221200,12.94922119140625,-2.0489344596862793,-1.2861299514770508,-0.5280282497406006
1764634067287979800,12.965979736328125,-1.9207768440246582,-1.231400489807129,-0.4092501401901245
1764634067304710000,12.9827099609375,-1.7941253185272217,-1.1127986907958984,-0.39105165004730225
1764634067321461000,12.9994609375,-1.6325254440307617,-0.9122037887573242,-0.35043203830718994
1764634067338190800,13.01619091796875,-1.65865957736969,-0.6830835342407227,-0.25173497200012207
1764634067354962000,13.0329619140625,-1.8999418020248413,-0.4868907928466797,-0.11624443531036377
1764634067371699500,13.049699462890626,-2.0736265182495117,-0.3955650329589844,0.16900765895843506
1764634067388449300,13.06644921875,-1.6763216257095337,-0.11511802673339844,0.3892083168029785
1764634067405194200,13.0831943359375,-1.1898438930511475,0.017610549926757812,0.23788201808929443
1764634067421937000,13.09993701171875,-0.72386634349823,-0.054477691650390625,0.4235684871673584
1764634067438690600,13.116690673828124,-0.5148705244064331,-0.14950180053710938,0.2901294231414795
1764634067455450000,13.1334501953125,-0.6947194933891296,-0.24507713317871094,0.07082581520080566
1764634067472191200,13.150191162109374,-0.8974688053131104,-0.20682334899902344,0.061293840408325195
1764634067488921900,13.166921875,-0.7570022344589233,-0.2198801040649414,-0.029163718223571777
1764634067505684200,13.183684326171875,-0.43600475788116455,-0.30928802490234375,-0.06449222564697266
1764634067522402600,13.200402587890625,-0.18321457505226135,-0.28964900970458984,0.030926823616027832
1764634067539183600,13.21718359375,-0.18766111135482788,-0.25128936767578125,0.18969416618347168
1764634067555925000,13.233925048828125,-0.49561962485313416,-0.2986459732055664,0.1445751190185547
1764634067572675800,13.25067578125,-0.9785797595977783,-0.36063194274902344,-0.028187990188598633
1764634067589415200,13.267415283203125,-1.3625297546386719,-0.34502696990966797,-0.20282936096191406
1764634067606164700,13.284164794921875,-1.5816619396209717,-0.3041982650756836,-0.4632236957550049
1764634067622888200,13.30088818359375,-1.2261302471160889,-0.27208518981933594,-0.4699544906616211
1764634067639647000,13.31764697265625,-0.6907646059989929,-0.31644630432128906,-0.39778101444244385
1764634067656391400,13.334391357421875,-0.5176143646240234,-0.37091541290283203,-0.4288473129272461
1764634067673138000,13.351137939453125,-0.5537218451499939,-0.3827333450317383,-0.3409534692764282
1764634067689869000,13.367869140625,-0.6647166013717651,-0.3336219787597656,-0.28143107891082764
1764634067706631700,13.384631591796875,-0.7764242887496948,-0.3886594772338867,-0.17990922927856445
1764634067723377200,13.401377197265624,-0.9713380932807922,-0.49553775787353516,-0.21190917491912842
1764634067740124200,13.418124267578126,-1.4096016883850098,-0.5310077667236328,-0.1529480218887329
1764634067756864500,13.434864501953125,-1.813372254371643,-0.49728965759277344,-0.13246142864227295
1764634067773626000,13.451626220703124,-1.8275434970855713,-0.5125627517700195,-0.034517884254455566
1764634067790376700,13.468376708984374,-1.7032151222229004,-0.6624250411987305,0.0011278390884399414
1764634067807123500,13.48512353515625,-1.5373691320419312,-0.8515853881835938,0.04578399658203125
1764634067823864000,13.501864013671875,-1.7080070972442627,-1.0118541717529297,0.0821828842163086
1764634067840604700,13.518604736328125,-2.122361421585083,-1.0596818923950195,0.10566461086273193
1764634067857349400,13.535349365234374,-2.449923038482666,-1.0059623718261719,0.14209139347076416
1764634067874096000,13.55209619140625,-2.4534943103790283,-0.9274587631225586,0.16689562797546387
1764634067890842400,13.56884228515625,-1.8443058729171753,-1.1154823303222656,0.4133080244064331
1764634067907586800,13.5855869140625,-1.0003130435943604,-1.3456506729125977,0.39145541191101074
1764634067924337700,13.602337646484376,-0.3085758686065674,-1.4900531768798828,0.2084137201309204
1764634067941088300,13.619088134765626,-0.8355417251586914,-1.7324066162109375,0.08378338813781738
1764634067957841400,13.63584130859375,-1.3805803060531616,-1.7794699668884277,-0.2332930564880371
1764634067974584000,13.652583984375,-1.8746252059936523,-1.8192415237426758,-0.3227640390396118
1764634067991338200,13.669338134765624,-1.5748674869537354,-2.091586112976074,-0.4780982732772827
1764634068008078800,13.686078857421874,-1.2271060943603516,-2.2204508781433105,0.9821265935897827
1764634068024827000,13.702826904296876,-1.6139886379241943,-2.0879998207092285,1.8357906341552734
1764634068041553200,13.71955322265625,-1.8957631587982178,-2.2297215461730957,0.49075770378112793
1764634068058312000,13.73631201171875,-3.103956460952759,-2.9214229583740234,-0.2802468538284302
1764634068075041300,13.753041259765626,-4.006728649139404,-3.4396486282348633,-0.6114100813865662
1764634068091800000,13.769800048828126,-3.6941237449645996,-3.8130335807800293,-0.6608898639678955
1764634068108545300,13.786545166015625,-2.346294641494751,-3.6570377349853516,0.3100496828556061
1764634068125294600,13.803294677734375,-0.5353903770446777,-3.588204860687256,1.139946699142456
1764634068142039800,13.820039794921875,1.1108126640319824,-3.7198007106781006,1.167725682258606
1764634068158786300,13.836786376953125,1.5523581504821777,-3.6736462116241455,0.4869048595428467
1764634068175533000,13.853532958984376,1.3136553764343262,-3.4773194789886475,0.669135332107544
1764634068192278000,13.870278076171875,1.2629756927490234,-2.9211297035217285,1.1911238431930542
1764634068209027000,13.887027099609375,1.8636808395385742,-2.3664021492004395,1.6397202014923096
1764634068225757200,13.903757080078124,2.2141637802124023,-2.0406951904296875,1.297579288482666
1764634068242522600,13.920522705078126,2.173945426940918,-1.835710048675537,1.2659200429916382
1764634068259261200,13.93726123046875,2.5268898010253906,-1.551422119140625,1.484215259552002
1764634068276032300,13.9540322265625,2.913455009460449,-1.4584648609161377,1.5854120254516602
1764634068292771000,13.97077099609375,3.6899614334106445,-1.1875555515289307,1.5122289657592773
1764634068309518300,13.987518310546875,3.8762969970703125,-0.8406002521514893,1.136258602142334
1764634068326263800,14.004263916015624,2.767544746398926,-0.6775636672973633,1.136956810951233
1764634068343011000,14.021010986328125,2.324305534362793,-0.5199792385101318,1.3077625036239624
1764634068359757300,14.03775732421875,2.8372812271118164,-0.5781283378601074,1.1261656284332275
1764634068376503600,14.054503662109376,3.3449172973632812,-0.3964865207672119,1.063767433166504
1764634068393250300,14.071250244140625,3.638045310974121,-0.3909749984741211,0.9273498058319092
1764634068409978400,14.087978271484374,3.514254570007324,-0.2899373769760132,0.583214521408081
1764634068426742500,14.104742431640625,2.654205322265625,-0.32674503326416016,0.17508816719055176
1764634068443495000,14.121494873046874,1.8131837844848633,-0.4491351842880249,0.011149883270263672
1764634068460231200,14.138231201171875,1.7522563934326172,-0.5033589005470276,-0.24221301078796387
1764634068476981200,14.154981201171875,1.6684150695800781,-0.5028048753738403,-0.224379301071167
1764634068493722600,14.17172265625,1.4607172012329102,-0.5354159474372864,-0.21635961532592773
1764634068510482400,14.188482421875,1.5274791717529297,-0.5003613829612732,-0.07117223739624023
1764634068527218700,14.20521875,1.7427778244018555,-0.5620932579040527,-0.32952427864074707
1764634068543964200,14.221964111328125,1.6451282501220703,-0.6262274384498596,-0.8229000568389893
1764634068560720000,14.238719970703125,0.9022674560546875,-0.7353382706642151,-1.1167969703674316
1764634068577452300,14.255452392578125,-0.27097511291503906,-0.8163596987724304,-1.0166559219360352
1764634068594204200,14.2722041015625,-1.1552391052246094,-0.7251850962638855,-0.3552553653717041
1764634068610942700,14.288942626953125,-1.2059564590454102,-0.6987618803977966,0.1772770881652832
1764634068627674600,14.305674560546874,-0.7673444747924805,-0.6741951107978821,0.033643245697021484
1764634068644434700,14.3224345703125,-0.6188888549804688,-0.8302940726280212,-0.4383831024169922
1764634068661181000,14.339180908203126,-0.4806709289550781,-0.8226475715637207,-0.44522786140441895
1764634068677905000,14.35590478515625,-0.5277738571166992,-0.5970978736877441,-0.04121971130371094
1764634068694677800,14.372677734375,-0.5754680633544922,-0.4871910810470581,0.5026669502258301
1764634068711421000,14.3894208984375,-0.15358257293701172,-0.18539303541183472,0.9283351898193359
1764634068728151600,14.406151611328125,0.13981151580810547,-0.026376843452453613,1.0453948974609375
1764634068744910000,14.42291015625,0.5883712768554688,0.02667081356048584,0.7571687698364258
1764634068761666800,14.439666748046875,1.187636375427246,-0.09971964359283447,0.33478307723999023
1764634068778401000,14.456401123046875,1.6135272979736328,-0.16117465496063232,0.3185572624206543
1764634068795165400,14.47316552734375,1.8594589233398438,0.018720626831054688,0.6990108489990234
1764634068811908900,14.489908935546875,1.5792860984802246,0.18735671043395996,0.9585475921630859
1764634068828644900,14.506644775390624,1.2284150123596191,0.220680832862854,0.8363685607910156
1764634068845407700,14.52340771484375,1.2676386833190918,0.23859083652496338,0.7547931671142578
1764634068862150000,14.54014990234375,1.4005036354064941,0.27965426445007324,0.7723674774169922
1764634068878897200,14.556897216796875,1.4805164337158203,0.21683955192565918,1.0768094062805176
1764634068895649300,14.573649169921875,1.3416085243225098,0.3647345304489136,1.1599440574645996
1764634068912392000,14.590391845703126,0.9089322090148926,0.3264070749282837,0.993013858795166
1764634068929118700,14.60711865234375,0.5693011283874512,0.14773893356323242,0.5237116813659668
1764634068945880000,14.623880126953125,0.4596095085144043,-0.020194172859191895,0.054590702056884766
1764634068962635500,14.640635498046874,0.2911806106567383,-0.12019193172454834,-0.13161802291870117
1764634068979377200,14.657377197265625,-0.03456401824951172,-0.23240137100219727,-0.25266218185424805
1764634068996123400,14.674123291015626,-0.24863433837890625,-0.4390385150909424,-0.2636399269104004
1764634069012866300,14.6908662109375,-0.12173223495483398,-0.398903489112854,-0.24805974960327148
1764634069029621000,14.70762109375,0.07465648651123047,-0.30610787868499756,-0.17481136322021484
1764634069046363600,14.72436376953125,0.46317434310913086,-0.30535411834716797,-0.26406002044677734
1764634069063105000,14.74110498046875,0.8366365432739258,-0.3155299425125122,-0.10077190399169922
1764634069079855600,14.757855712890626,1.0531878471374512,-0.10613679885864258,0.1984262466430664
1764634069096591600,14.774591552734375,1.0394110679626465,0.03428769111633301,0.40935182571411133
1764634069113342700,14.7913427734375,0.9467401504516602,0.0893545150756836,0.4888629913330078
1764634069130083600,14.80808349609375,0.6571245193481445,0.08179938793182373,0.38883495330810547
1764634069146821400,14.8248212890625,0.2096400260925293,0.15689098834991455,0.17267847061157227
1764634069163581400,14.84158154296875,-0.14663171768188477,0.16371452808380127,0.09528255462646484
1764634069180322300,14.858322265625,-0.23124980926513672,0.11948990821838379,0.13178062438964844
1764634069197068300,14.875068359375,-0.19359540939331055,0.10967016220092773,0.2473154067993164
1764634069213812500,14.8918125,-0.17789840698242188,0.09343159198760986,0.18840551376342773
1764634069230564400,14.908564453125,-0.25211286544799805,-0.016535520553588867,-0.043332576751708984
1764634069247308300,14.925308349609375,-0.22397470474243164,-0.12352180480957031,-0.2870512008666992
1764634069264070100,14.942070068359374,0.031996726989746094,-0.2594752311706543,-0.35462427139282227
1764634069280798000,14.9587978515625,0.057650089263916016,-0.36202120780944824,-0.28275537490844727
1764634069297547300,14.97554736328125,-0.1588268280029297,-0.3984520435333252,-0.3703594207763672
1764634069314294300,14.992294189453125,-0.31203317642211914,-0.4096364974975586,-0.43709516525268555
1764634069331040500,15.00904052734375,-0.2889747619628906,-0.5552117824554443,-0.3711280822753906
1764634069347787300,15.025787353515625,-0.12897205352783203,-0.3603544235229492,-0.5204076766967773
1764634069364533500,15.042533447265624,-0.43659543991088867,-0.2235713005065918,-0.4472203254699707
1764634069381296400,15.05929638671875,-0.5498576164245605,-0.19294977188110352,-0.5833849906921387
1764634069398038500,15.07603857421875,-0.4510617256164551,-0.19709110260009766,-0.04248809814453125
1764634069414786600,15.09278662109375,0.2210378646850586,0.12670087814331055,0.7536163330078125
1764634069431532000,15.109531982421874,0.7500591278076172,0.5524121522903442,1.1714248657226562
1764634069448278800,15.12627880859375,1.1341466903686523,0.7228261232376099,1.3155999183654785
1764634069465025500,15.143025634765625,1.894340991973877,0.645097017288208,1.4455804824829102
1764634069481756000,15.159755859375,3.109466552734375,0.5940179824829102,1.5132617950439453
1764634069498505200,15.176505126953124,4.348080158233643,0.7038332223892212,1.5820636749267578
1764634069515252200,15.193252197265625,4.734951972961426,0.8943018913269043,2.288452625274658
1764634069531998200,15.209998291015625,4.14789342880249,0.8669643402099609,2.756326198577881
1764634069548745200,15.2267451171875,3.317007541656494,0.616025447845459,2.896697998046875
1764634069565491000,15.243490966796875,3.3887782096862793,0.6088104248046875,2.705289840698242
1764634069582238200,15.26023828125,3.763542652130127,0.3108546733856201,2.3200931549072266
1764634069598984000,15.27698388671875,4.067873477935791,-0.28032732009887695,1.6983675956726074
1764634069615731000,15.29373095703125,3.938814163208008,-0.7489340305328369,1.4516687393188477
1764634069632477000,15.310476806640626,3.575505256652832,-1.058337688446045,1.2526192665100098
1764634069649224200,15.32722412109375,3.095869541168213,-1.3275718688964844,1.2066130638122559
1764634069665970000,15.343969970703125,2.9089131355285645,-1.4892418384552002,1.3902664184570312
1764634069682717000,15.360717041015626,2.631319046020508,-1.5631743669509888,1.5269274711608887
1764634069699455000,15.377455078125,1.992340087890625,-1.6277751922607422,1.2187962532043457
1764634069716210000,15.3942099609375,1.7385711669921875,-1.7977827787399292,1.2894864082336426
1764634069732956000,15.410955810546875,1.9501619338989258,-1.84212327003479,1.7362480163574219
1764634069749688000,15.42768798828125,1.6110987663269043,-1.9314239025115967,1.9560198783874512
1764634069766467600,15.444467529296874,0.9278120994567871,-2.0242085456848145,2.093256950378418
1764634069783209000,15.461208984375,0.4636678695678711,-1.9798743724822998,2.2050623893737793
1764634069799954700,15.47795458984375,0.48174285888671875,-1.9977011680603027,2.2667903900146484
1764634069816683800,15.494683837890625,0.9585995674133301,-2.0344152450561523,2.316028118133545
1764634069833416200,15.511416259765625,1.1830263137817383,-2.1672589778900146,2.266618251800537
1764634069850179800,15.528179931640626,0.8877239227294922,-2.3960790634155273,2.0398755073547363
1764634069866930400,15.544930419921876,0.8593058586120605,-2.5578956604003906,2.03061580657959
1764634069883675400,15.56167529296875,1.0948882102966309,-2.676288604736328,2.146730899810791
1764634069900419300,15.57841943359375,1.2991914749145508,-2.7966525554656982,2.2471213340759277
1764634069917169400,15.59516943359375,1.1214509010314941,-2.7976930141448975,2.2508184909820557
1764634069933930200,15.61193017578125,0.7973494529724121,-3.0435709953308105,1.927860975265503
1764634069950671000,15.628671142578124,0.6551828384399414,-3.2438011169433594,1.7553637027740479
1764634069967422500,15.64542236328125,0.48545312881469727,-3.219900369644165,1.659973382949829
1764634069984166400,15.66216650390625,0.11922073364257812,-3.241915702819824,1.5047829151153564
1764634070000912400,15.678912353515624,-0.09271860122680664,-3.205197811126709,1.3380286693572998
1764634070017659600,15.69565966796875,-0.16893863677978516,-3.2471976280212402,1.2813191413879395
1764634070034405600,15.712405517578125,-0.2944197654724121,-3.399664878845215,1.0496898889541626
1764634070051122400,15.729122314453125,-0.4921078681945801,-3.6459569931030273,0.7185015678405762
1764634070067887400,15.745887451171875,-0.4394826889038086,-3.493236541748047,0.49319934844970703
1764634070084633000,15.762633056640626,-0.5026159286499023,-3.5744519233703613,0.21549272537231445
1764634070101378800,15.77937890625,-0.8464903831481934,-3.6802778244018555,-0.04387032985687256
1764634070118125800,15.796125732421874,-1.1619672775268555,-3.735445022583008,-0.28386953473091125
1764634070134872000,15.8128720703125,-1.3559355735778809,-3.547142505645752,-0.4592369794845581
1764634070151619000,15.829619140625,-1.0897150039672852,-3.2916178703308105,-0.3262863755226135
1764634070168365000,15.846364990234376,-1.580159306526184,-3.103087902069092,-0.228374183177948
1764634070185111800,15.86311181640625,-2.4903018474578857,-2.9601454734802246,-0.4466676712036133
1764634070201857800,15.87985791015625,-3.1319894790649414,-2.606489658355713,-0.48071086406707764
1764634070218605000,15.89660498046875,-3.322263717651367,-2.22560977935791,-0.32623469829559326
1764634070235351000,15.91335107421875,-3.4655237197875977,-1.9039316177368164,-0.535903811454773
1764634070252113700,15.93011376953125,-3.3760364055633545,-1.7934060096740723,-0.5589820146560669
1764634070268857000,15.946857177734374,-3.1580145359039307,-1.6359186172485352,-0.5542747974395752
1764634070285599700,15.963599853515625,-2.854957342147827,-1.6380243301391602,-0.5551710724830627
1764634070302337800,15.980337890625,-3.042801856994629,-1.541067123413086,-0.8170129656791687
1764634070319084300,15.997084228515625,-2.9067068099975586,-1.290797233581543,-0.8986760377883911
1764634070335829800,16.013829833984374,-2.190239906311035,-1.146627426147461,-0.8184023499488831
1764634070352576500,16.030576416015624,-1.7113845348358154,-1.107804298400879,-0.6810860633850098
1764634070369323000,16.047322998046877,-1.2824175357818604,-1.0674686431884766,-0.6332921981811523
1764634070386069800,16.06406982421875,-1.3619847297668457,-1.0185766220092773,-0.5672142505645752
1764634070402831400,16.080831298828127,-1.5519331693649292,-0.954777717590332,-0.6410650014877319
1764634070419599000,16.09759912109375,-1.5542633533477783,-0.8479862213134766,-0.7648383378982544
1764634070436321800,16.11432177734375,-1.6326950788497925,-0.7653436660766602,-0.7830122709274292
1764634070453068300,16.131068359375,-1.7203004360198975,-0.6322250366210938,-0.7260671854019165
1764634070469796400,16.14779638671875,-1.5189496278762817,-0.5434541702270508,-0.3940880298614502
1764634070486549800,16.1645498046875,-1.2515549659729004,-0.4752998352050781,-0.3441336154937744
1764634070503304400,16.181304443359377,-1.0311204195022583,-0.46074676513671875,-0.35918736457824707
1764634070520055000,16.198054931640623,-0.9690918922424316,-0.4942922592163086,-0.4301455020904541
1764634070536765200,16.21476513671875,-0.9683226346969604,-0.4762592315673828,-0.5013703107833862
1764634070553519400,16.231519287109375,-1.041000247001648,-0.44057655334472656,-0.45280253887176514
1764634070570269000,16.24826904296875,-1.1172198057174683,-0.3956794738769531,-0.33051908016204834
1764634070587027700,16.26502783203125,-1.1068518161773682,-0.3995790481567383,-0.2565721273422241
1764634070603774000,16.28177392578125,-1.0428643226623535,-0.4612092971801758,-0.33938467502593994
1764634070620520700,16.298520751953124,-0.6820685267448425,-0.4035758972167969,-0.27771592140197754
1764634070637251000,16.3152509765625,-0.3373068869113922,-0.4366731643676758,-0.2691706418991089
1764634070654013700,16.332013671875,-0.44694212079048157,-0.4750404357910156,-0.25263166427612305
1764634070670760000,16.348760009765623,-0.9150525331497192,-0.5808506011962891,-0.26046252250671387
1764634070687506700,16.365506591796876,-1.6243256330490112,-0.6913671493530273,-0.44361090660095215
1764634070704252400,16.38225244140625,-2.1623072624206543,-0.7578945159912109,-0.6368963718414307
1764634070720994600,16.39899462890625,-1.8990534543991089,-0.764286994934082,-0.6514503955841064
1764634070737749000,16.4157490234375,-1.0712153911590576,-0.7436676025390625,-0.46057504415512085
1764634070754489300,16.4324892578125,-0.3694440424442291,-0.8508176803588867,-0.35158854722976685
1764634070771238400,16.44923828125,-0.468993216753006,-0.9730186462402344,-0.34446847438812256
1764634070787982000,16.465982177734375,-1.274353265762329,-1.1244897842407227,-0.2597544193267822
1764634070804731600,16.482731689453125,-2.410094976425171,-1.2103004455566406,-0.1666557788848877
1764634070821478700,16.499478759765626,-3.529285192489624,-1.4098834991455078,-0.2405073642730713
1764634070838224400,16.516224365234375,-4.085383892059326,-1.6212091445922852,-0.30003660917282104
1764634070854956000,16.5329560546875,-3.4272067546844482,-1.7514123916625977,-0.06678467988967896
1764634070871718000,16.5497177734375,-2.0538389682769775,-2.0261120796203613,0.10128742456436157
1764634070888464400,16.56646435546875,-0.8244208097457886,-2.2259950637817383,0.11826711893081665
1764634070905210400,16.58321044921875,-0.3114192485809326,-2.152395725250244,0.23321101069450378
1764634070921975600,16.5999755859375,-0.7523026466369629,-1.9749565124511719,0.36644503474235535
1764634070938716700,16.616716552734374,-1.093039870262146,-1.8609614372253418,0.449634850025177
1764634070955463200,16.633463134765623,-0.8565149307250977,-1.926628589630127,0.31082844734191895
1764634070972209200,16.650209228515624,-0.23198413848876953,-1.9841113090515137,0.49748262763023376
1764634070988938200,16.666938232421874,0.0646824836730957,-1.9874920845031738,0.3702208995819092
1764634071005696300,16.6836962890625,0.36037397384643555,-2.25344181060791,0.32873061299324036
1764634071022439200,16.700439208984374,0.6379928588867188,-2.2848143577575684,0.1492823362350464
1764634071039160600,16.71716064453125,0.2865629196166992,-2.462280750274658,-0.6204574108123779
1764634071055921000,16.7339208984375,-0.35399389266967773,-2.5260376930236816,-0.5608973503112793
1764634071072674600,16.750674560546877,-0.6025071144104004,-2.3031325340270996,0.1946302205324173
1764634071089423600,16.767423583984375,-0.13019847869873047,-2.1488027572631836,0.7382766008377075
1764634071106148600,16.784148681640627,0.41175031661987305,-1.6629009246826172,1.9746886491775513
1764634071122915300,16.800915283203125,0.5500998497009277,-1.6229724884033203,1.98306405544281
1764634071139661600,16.81766162109375,-0.11166715621948242,-1.2883400917053223,1.987605094909668
1764634071156403700,16.83440380859375,-0.19069290161132812,-1.6495404243469238,0.6355901956558228
1764634071173154800,16.85115478515625,0.30730199813842773,-2.0211615562438965,0.3733503222465515
1764634071189888000,16.867887939453126,1.3619260787963867,-2.010284900665283,0.3190346360206604
1764634071206645800,16.884645751953126,1.390547275543213,-1.9031329154968262,0.4378012418746948
1764634071223394000,16.90139404296875,0.765655517578125,-1.8574028015136719,0.3772871494293213
1764634071240140500,16.918140625,0.9539804458618164,-1.921006202697754,0.38891780376434326
1764634071256869000,16.934869140625,1.2653465270996094,-1.8088648319244385,0.41554343700408936
1764634071273649200,16.951649169921875,1.059412956237793,-1.797466516494751,0.5431510210037231
1764634071290375200,16.968375244140624,0.735499382019043,-1.6658344268798828,0.63716721534729
1764634071307139000,16.98513916015625,-0.1483917236328125,-1.5585553646087646,0.8605630397796631
1764634071323886300,17.00188623046875,0.22495365142822266,-1.4790935516357422,1.3602352142333984
1764634071340632000,17.018632080078124,1.1268815994262695,-1.1498786211013794,1.6408820152282715
1764634071357382400,17.03538232421875,1.5388879776000977,-1.1499229669570923,1.3884503841400146
1764634071374109200,17.052109130859375,0.744044303894043,-1.0614768266677856,1.1193969249725342
1764634071390859500,17.068859619140625,-0.061913490295410156,-1.1869016885757446,1.2081387042999268
1764634071407609000,17.085609130859375,0.41521739959716797,-0.8419698476791382,2.0808448791503906
1764634071424352000,17.10235205078125,2.0504398345947266,-0.634161114692688,2.300703525543213
1764634071441098500,17.119098388671876,3.517531394958496,-0.5647615790367126,1.9431023597717285
1764634071457845000,17.135844970703126,3.7873802185058594,-0.641315221786499,1.039231300354004
1764634071474603300,17.152603271484374,2.829195022583008,-0.7272158265113831,0.2195897102355957
1764634071491356200,17.169356201171876,1.9545583724975586,-0.7857604026794434,-0.2133464813232422
1764634071508081400,17.186081298828125,1.3759918212890625,-0.6427322626113892,-0.4152860641479492
1764634071524825000,17.2028251953125,0.48117542266845703,-0.5647358894348145,-0.36075687408447266
1764634071541574100,17.21957421875,0.11707782745361328,-0.5527446866035461,0.15304040908813477
1764634071558327300,17.236327392578126,1.4811029434204102,-0.48483923077583313,0.8317508697509766
1764634071575054300,17.253054443359375,3.077127456665039,-0.44174081087112427,0.5600013732910156
1764634071591817500,17.2698173828125,3.0667176246643066,-0.5485441088676453,-0.22287511825561523
1764634071608563000,17.28656298828125,2.1230273246765137,-0.37831562757492065,-0.3601703643798828
1764634071625322800,17.30332275390625,0.8941006660461426,-0.21586930751800537,-0.14322757720947266
1764634071642046500,17.32004638671875,0.29735469818115234,-0.1691797971725464,0.14135026931762695
1764634071658803000,17.336802978515625,1.2209362983703613,-0.0038160085678100586,0.6299734115600586
1764634071675549400,17.353549560546874,2.759474277496338,0.002096414566040039,0.786592960357666
1764634071692285400,17.370285400390625,3.051321506500244,-0.01294410228729248,0.8730030059814453
1764634071709044500,17.38704443359375,2.079888343811035,0.19510364532470703,0.9302058219909668
1764634071725772800,17.403772705078126,0.9332571029663086,0.26182806491851807,0.7259364128112793
1764634071742552800,17.420552734375,0.2969222068786621,0.21876192092895508,0.3934454917907715
1764634071759286800,17.437286865234373,0.11113262176513672,0.1454164981842041,0.24616479873657227
1764634071776049000,17.454048828125,0.2509188652038574,0.12318849563598633,0.571265697479248
1764634071792774700,17.470774658203126,0.3980536460876465,0.18343126773834229,1.0646815299987793
1764634071809533700,17.48753369140625,-0.09275293350219727,0.11212456226348877,1.095710277557373
1764634071826281500,17.504281494140624,-0.5292477607727051,0.02349233627319336,0.7491827011108398
1764634071843026700,17.521026611328125,-0.4635186195373535,-0.030059814453125,0.5322308540344238
1764634071859772400,17.5377724609375,-0.16527986526489258,0.021349430084228516,0.6472859382629395
1764634071876520200,17.554520263671876,0.0015811920166015625,0.0031480789184570312,0.695185661315918
1764634071893264100,17.57126416015625,0.1814718246459961,-0.010105371475219727,0.5730090141296387
1764634071909998300,17.587998291015627,0.5212812423706055,0.09273314476013184,0.5058612823486328
1764634071926741200,17.6047412109375,0.7105607986450195,0.4638195037841797,0.9368300437927246
1764634071943498000,17.621498046875,1.1983494758605957,0.7854937314987183,1.5442314147949219
1764634071960261400,17.638261474609376,1.9997591972351074,0.6643884181976318,1.15850830078125
1764634071976980000,17.65497998046875,2.407667636871338,0.40908777713775635,0.499481201171875
1764634071993723100,17.67172314453125,2.245211124420166,0.20462441444396973,-0.2246541976928711
1764634072010473200,17.68847314453125,1.721181869506836,-0.049376726150512695,-0.5746936798095703
1764634072027229400,17.7052294921875,1.023693561553955,-0.19564151763916016,-0.5606098175048828
1764634072043963600,17.721963623046875,0.45954227447509766,-0.11493277549743652,-0.31629037857055664
1764634072060718800,17.73871875,0.525482177734375,0.11231732368469238,0.4461393356323242
1764634072077449700,17.75544970703125,1.3857545852661133,0.4969508647918701,1.4951930046081543
1764634072094211800,17.7722119140625,2.268617630004883,0.8501706123352051,2.08778715133667
1764634072110974500,17.788974365234374,2.540583610534668,0.7152153253555298,2.2104992866516113
1764634072127701800,17.80570166015625,2.3204116821289062,0.7120852470397949,2.1175785064697266
1764634072144450800,17.822450927734376,2.00093936920166,0.6263868808746338,2.073482036590576
1764634072161198000,17.839197998046874,1.8557024002075195,0.5370404720306396,2.0422887802124023
1764634072177935000,17.85593505859375,2.1353836059570312,0.3941997289657593,1.933393955230713
1764634072194691000,17.872691162109376,2.5547094345092773,0.16071391105651855,1.9588909149169922
1764634072211437000,17.88943701171875,2.9837045669555664,0.09713113307952881,2.017026424407959
1764634072228181200,17.90618115234375,2.9573307037353516,-0.1366288661956787,1.8781437873840332
1764634072244945400,17.9229453125,2.8629236221313477,-0.43699926137924194,1.5579261779785156
1764634072261673500,17.939673583984376,2.671652317047119,-0.6997687220573425,1.2477645874023438
1764634072278423300,17.95642333984375,2.19888973236084,-0.9763873815536499,0.9627618789672852
1764634072295169800,17.973169677734376,1.9035625457763672,-1.1789480447769165,0.9271039962768555
1764634072311916000,17.989916015625,2.0370125770568848,-1.29134202003479,1.0784735679626465
1764634072328668200,18.006668212890624,2.19144868850708,-1.2891416549682617,1.4054722785949707
1764634072345408800,18.02340869140625,2.1055707931518555,-1.4100675582885742,1.6083216667175293
1764634072362155800,18.04015576171875,2.0283498764038086,-1.5586063861846924,1.5648846626281738
1764634072378901800,18.05690185546875,1.8513154983520508,-1.5969773530960083,1.7021455764770508
1764634072395649000,18.07364892578125,1.5162181854248047,-1.5842382907867432,1.830441951751709
1764634072412376800,18.090376953125,1.1484899520874023,-1.73403000831604,1.8578128814697266
1764634072429139700,18.1071396484375,1.0744876861572266,-1.8826420307159424,1.885756015777588
1764634072445889300,18.12388916015625,1.357375144958496,-1.9659662246704102,1.994920253753662
1764634072462635000,18.140635009765624,1.60821533203125,-2.1829676628112793,1.8255581855773926
1764634072479381000,18.157381103515625,1.4390316009521484,-2.334195852279663,1.6471009254455566
1764634072496125700,18.174125732421874,1.1840667724609375,-2.4425692558288574,1.6268582344055176
1764634072512876300,18.190876220703124,1.1189751625061035,-2.563304901123047,1.6452860832214355
1764634072529620500,18.207620361328125,1.1898460388183594,-2.7040727138519287,1.803572416305542
1764634072546366700,18.22436669921875,1.2020397186279297,-2.7294819355010986,1.810389518737793
1764634072563112700,18.24111279296875,0.7185444831848145,-2.8806159496307373,1.5626437664031982
1764634072579860000,18.25785986328125,0.2606954574584961,-3.083829402923584,1.1892859935760498
1764634072596623600,18.27462353515625,-0.3730902671813965,-3.3159427642822266,1.0945993661880493
1764634072613363000,18.291363037109374,-0.9337739944458008,-3.311971664428711,1.1270703077316284
1764634072630098200,18.30809814453125,-0.8739008903503418,-3.2752904891967773,1.0792686939239502
1764634072646847200,18.32484716796875,-0.8592281341552734,-3.2905426025390625,1.160537600517273
1764634072663593000,18.341593017578123,-0.8336429595947266,-3.2165169715881348,0.8387469053268433
1764634072680338700,18.358338623046876,-1.1138734817504883,-3.187194347381592,0.44474101066589355
1764634072697082000,18.37508203125,-0.8940753936767578,-3.215280055999756,0.28963395953178406
1764634072713835800,18.391835693359376,-1.0078692436218262,-3.049095630645752,0.31978800892829895
1764634072730579000,18.408578857421876,-1.3928663730621338,-2.851625442504883,0.5318915843963623
1764634072747324700,18.42532470703125,-1.6747126579284668,-2.5433497428894043,0.6705895662307739
1764634072764082000,18.44208203125,-2.0098071098327637,-2.336526870727539,0.534946858882904
1764634072780821200,18.4588212890625,-1.8809350728988647,-2.091926097869873,0.5860641002655029
1764634072797565000,18.47556494140625,-1.589815378189087,-1.8633933067321777,0.7128961086273193
1764634072814311000,18.492310791015626,-1.6256906986236572,-1.668661117553711,0.6558809876441956
1764634072831058000,18.509057861328124,-1.6597089767456055,-1.6239128112792969,0.4681570529937744
1764634072847804000,18.525803955078125,-1.6470327377319336,-1.3704843521118164,0.30222296714782715
1764634072864551000,18.542551025390626,-1.4504075050354004,-0.9438886642456055,0.41866815090179443
1764634072881296400,18.55929638671875,-1.2918658256530762,-0.8737621307373047,0.44195783138275146
1764634072898044000,18.5760439453125,-0.875705897808075,-0.773280143737793,0.2329775094985962
1764634072914790000,18.592789794921874,-0.5334798693656921,-0.916630744934082,0.08555436134338379
1764634072931541200,18.609541259765624,-0.41593658924102783,-0.9656791687011719,-0.1132659912109375
1764634072948279000,18.626279052734375,-0.8959448933601379,-1.0468482971191406,-0.16167664527893066
1764634072965033700,18.64303369140625,-1.2050092220306396,-1.0404510498046875,-0.2460155487060547
1764634072981776000,18.65977587890625,-1.3172850608825684,-1.1188135147094727,-0.28756213188171387
1764634072998523000,18.67652294921875,-1.5919275283813477,-1.2168283462524414,-0.3059265613555908
1764634073015270700,18.693270751953126,-1.7703534364700317,-1.2638177871704102,-0.1652231216430664
1764634073032010500,18.710010498046874,-2.020962715148926,-1.3273696899414062,-0.2036440372467041
1764634073048765000,18.726764892578124,-2.0638742446899414,-1.3991265296936035,-0.3165731430053711
1764634073065506600,18.743506591796876,-2.175971508026123,-1.3668708801269531,-0.4014275074005127
1764634073082256600,18.760256591796875,-2.107236385345459,-1.2461309432983398,-0.45755553245544434
1764634073099001900,18.777001953125,-1.844754934310913,-1.2088289260864258,-0.4955322742462158
1764634073115747800,18.793747802734377,-1.6217739582061768,-1.0791616439819336,-0.4034082889556885
1764634073132494600,18.81049462890625,-1.4411308765411377,-0.9423971176147461,-0.1690661907196045
1764634073149240800,18.82724072265625,-1.6910344362258911,-1.0647459030151367,-0.21241402626037598
1764634073165987800,18.84398779296875,-2.3761534690856934,-0.8755693435668945,-0.4044060707092285
1764634073182733600,18.860733642578126,-2.341238021850586,-0.5312118530273438,0.0005772113800048828
1764634073199480600,18.87748046875,-2.094249725341797,-0.6461009979248047,-0.16531062126159668
1764634073216242700,18.89424267578125,-1.9502187967300415,-0.6792507171630859,-0.40607452392578125
1764634073232986000,18.910986083984376,-1.3839133977890015,-0.6383342742919922,-0.12194514274597168
1764634073249706000,18.9277060546875,-1.2166041135787964,-0.7231197357177734,-0.03562641143798828
1764634073266463200,18.944463134765623,-1.284009575843811,-0.7650012969970703,-0.2144622802734375
1764634073283212500,18.961212646484373,-1.565298080444336,-0.741358757019043,-0.32687830924987793
1764634073299962000,18.977962158203123,-1.5995514392852783,-0.6709871292114258,-0.3074193000793457
1764634073316703500,18.994703369140623,-1.5045902729034424,-0.7639007568359375,-0.17014503479003906
1764634073333452500,19.01145263671875,-1.534273386001587,-0.8667430877685547,-0.10352945327758789
1764634073350198800,19.02819873046875,-1.648125410079956,-0.8921632766723633,-0.16172504425048828
1764634073366961400,19.04496142578125,-1.758063793182373,-0.8750085830688477,-0.19760990142822266
1764634073383704600,19.06170458984375,-1.6530873775482178,-0.9384584426879883,-0.17454934120178223
1764634073400451800,19.078451904296877,-1.3486524820327759,-0.8902997970581055,-0.14603471755981445
1764634073417196300,19.0951962890625,-0.9885842204093933,-0.9790925979614258,-0.05729484558105469
1764634073433945300,19.1119453125,-0.7110483646392822,-1.0190849304199219,-0.038573503494262695
1764634073450691000,19.128691162109376,-0.7152496576309204,-1.0676336288452148,0.02886366844177246
1764634073467421400,19.14542138671875,-0.5897330641746521,-0.9311161041259766,0.20618462562561035
1764634073484170500,19.16217041015625,-0.3930000960826874,-0.9621372222900391,0.25662779808044434
1764634073500917800,19.178917724609374,-0.49605774879455566,-1.0808935165405273,0.07115364074707031
1764634073517663700,19.195663818359375,-0.7350918054580688,-1.1292915344238281,-0.03151559829711914
1764634073534410500,19.212410400390624,-0.8824249505996704,-0.9866447448730469,0.24858832359313965
1764634073551156700,19.22915673828125,-0.7028444409370422,-0.9345703125,0.3447132110595703
1764634073567919600,19.245919677734374,-0.1532682180404663,-0.8516864776611328,0.4308513402938843
1764634073584646100,19.262646240234375,0.29602575302124023,-0.816828727722168,0.3136923313140869
1764634073601396700,19.279396728515625,0.5136404037475586,-1.0069894790649414,-0.12217545509338379
1764634073618142500,19.296142578125,0.19634342193603516,-0.7116785049438477,0.4081604480743408
1764634073634889500,19.312889404296875,-0.16040658950805664,-1.0267000198364258,0.06269478797912598
1764634073651635500,19.329635498046876,-0.7292213439941406,-1.139359951019287,0.3138488531112671
1764634073668382700,19.3463828125,-0.8704972267150879,-1.2641916275024414,0.08632934093475342
1764634073685128200,19.363128173828127,-1.532728910446167,-1.2679219245910645,0.260381817817688
1764634073701875500,19.37987548828125,-1.7104222774505615,-1.420161247253418,0.3906116485595703
1764634073718621200,19.39662109375,-1.2330656051635742,-1.4859800338745117,0.8296542763710022
1764634073735368200,19.4133681640625,-0.4832296371459961,-1.7435970306396484,0.5670636892318726
1764634073752095500,19.430095458984376,-0.5748505592346191,-1.8649663925170898,0.4047558903694153
1764634073768865300,19.446865234375,-1.2565264701843262,-1.8111720085144043,0.3222823143005371
1764634073785604000,19.46360400390625,-1.6993937492370605,-1.7012748718261719,0.5464381575584412
1764634073802357800,19.480357666015625,-1.0733838081359863,-1.8020644187927246,0.789067268371582
1764634073819102200,19.497102294921874,-0.05380058288574219,-2.0096535682678223,0.6482611298561096
1764634073835845600,19.513845703125,0.39798831939697266,-2.0882315635681152,0.5865248441696167
1764634073852594400,19.530594482421876,0.12477636337280273,-2.0081920623779297,1.1051397323608398
1764634073869333500,19.54733349609375,-0.21200180053710938,-1.7494134902954102,1.0888439416885376
1764634073886066000,19.56406591796875,-0.6958088874816895,-1.6546030044555664,1.0685465335845947
1764634073902833700,19.580833740234375,-0.6632199287414551,-1.8071560859680176,0.9379774928092957
1764634073919579600,19.59757958984375,-0.1474294662475586,-1.9017982482910156,1.0091588497161865
1764634073936310800,19.614310791015626,0.9071221351623535,-2.0711402893066406,0.7361882328987122
1764634073953072600,19.63107275390625,1.3536405563354492,-1.8231840133666992,0.8549929857254028
1764634073969806300,19.647806396484373,0.9310026168823242,-1.5841944217681885,1.0190324783325195
1764634073986545700,19.664545654296877,0.2137765884399414,-1.4839868545532227,0.9748013019561768
1764634074003312000,19.68131201171875,0.12122631072998047,-1.5363051891326904,1.0021198987960815
1764634074020058400,19.698058349609376,0.7556276321411133,-1.52278733253479,0.9940692186355591
1764634074036805000,19.71480517578125,1.755716323852539,-1.5585198402404785,0.8805590867996216
1764634074053567700,19.731567626953126,2.378119468688965,-1.3865950107574463,1.0899932384490967
1764634074070295300,19.74829541015625,2.084610939025879,-1.0714192390441895,1.0778694152832031
1764634074087044400,19.76504443359375,1.6310672760009766,-0.9688067436218262,0.7667748928070068
1764634074103791400,19.781791259765626,2.250777244567871,-0.8608304262161255,0.4001638889312744
1764634074120537600,19.79853759765625,2.6169166564941406,-0.8834413290023804,-0.012241363525390625
1764634074137284000,19.8152841796875,1.8414545059204102,-1.0491418838500977,-0.44114160537719727
1764634074154030000,19.832030029296874,0.7564821243286133,-1.277355670928955,-0.6075053215026855
1764634074170777300,19.84877734375,0.8462743759155273,-1.2903872728347778,-0.0732872486114502
1764634074187523000,19.865523193359376,1.5809516906738281,-1.1493648290634155,0.2130451202392578
1764634074204286700,19.88228662109375,1.8909244537353516,-1.1583601236343384,-0.24623537063598633
1764634074221029600,19.899029541015626,1.236678123474121,-1.1576482057571411,-0.5923874378204346
1764634074237783800,19.91578369140625,0.30218505859375,-0.8370222449302673,-0.11819219589233398
1764634074254535400,19.932535400390623,-0.18491458892822266,-0.426871657371521,0.8190817832946777
1764634074271253000,19.9492529296875,0.7495803833007812,-0.09773072600364685,1.5004549026489258
1764634074288002000,19.966001953125,2.0843544006347656,-0.019272908568382263,1.226306438446045
1764634074304749000,19.9827490234375,2.654184341430664,-0.04992874711751938,0.7679224014282227
1764634074321495000,19.9994951171875,2.1049065589904785,0.17779967188835144,1.0751662254333496
1764634074338242000,20.016241943359375,1.0485429763793945,0.3093326985836029,1.6495585441589355
1764634074354988300,20.03298828125,0.4865250587463379,0.6629025936126709,2.013491630554199
1764634074371735300,20.0497353515625,1.26666259765625,0.8430594801902771,2.3560633659362793
1764634074388481000,20.06648095703125,2.5917277336120605,0.7847393155097961,2.1628565788269043
1764634074405224200,20.08322412109375,3.0117106437683105,0.41716641187667847,1.6741232872009277
1764634074421990400,20.099990478515625,2.2976369857788086,0.34636056423187256,1.5228705406188965
1764634074438718000,20.116718017578126,1.3181428909301758,0.3950493335723877,1.4505352973937988
1764634074455467000,20.133467041015624,1.0304522514343262,0.3720141053199768,1.0502934455871582
1764634074472200200,20.1502001953125,1.2537188529968262,0.22289490699768066,0.6660017967224121
1764634074488960000,20.1669599609375,1.155853271484375,0.14146018028259277,0.3178858757019043
1764634074505703400,20.183703369140623,0.6176066398620605,0.0561753511428833,0.12210273742675781
1764634074522456600,20.20045654296875,-0.08556127548217773,0.08096694946289062,0.1389751434326172
1764634074539185400,20.217185302734375,-0.5641841888427734,0.09673941135406494,0.16618824005126953
1764634074555927300,20.23392724609375,-0.709721565246582,-0.00011420249938964844,0.07343339920043945
1764634074572681700,20.250681640625,-0.6329898834228516,-0.03175365924835205,-0.0402226448059082
1764634074589439000,20.26743896484375,-0.3061251640319824,-0.03240084648132324,-0.005592823028564453
1764634074606171400,20.28417138671875,-0.14438867568969727,-0.06771636009216309,-0.011768341064453125
1764634074622932000,20.300931884765625,0.013167381286621094,-0.11590957641601562,-0.040918827056884766
1764634074639679000,20.317678955078126,0.19621849060058594,-0.16271424293518066,-0.022021770477294922
1764634074656425000,20.334425048828123,0.46904516220092773,-0.20887351036071777,0.11451482772827148
1764634074673182700,20.3511826171875,0.7568597793579102,-0.1543513536453247,0.1004939079284668
1764634074689902600,20.367902587890626,0.7426152229309082,0.013263821601867676,0.06505250930786133
1764634074706649300,20.3846494140625,0.3650383949279785,0.08749198913574219,0.14912748336791992
1764634074723411000,20.401410888671876,0.021438121795654297,0.16302084922790527,0.19405078887939453
1764634074740154600,20.418154541015625,0.011860370635986328,0.3083078861236572,0.11394977569580078
1764634074756906200,20.43490625,0.24291276931762695,0.4076511859893799,0.06614542007446289
1764634074773649000,20.45164892578125,0.18739843368530273,0.502048134803772,0.4299015998840332
1764634074790390800,20.468390869140624,0.30153894424438477,0.5514775514602661,0.7370057106018066
1764634074807144400,20.48514453125,0.5532569885253906,0.4338376522064209,0.7840447425842285
1764634074823888100,20.50188818359375,0.8041305541992188,0.2645782232284546,0.634580135345459
1764634074840630800,20.518630859375,0.7532973289489746,0.1424083709716797,0.38668346405029297
1764634074857400000,20.535400146484374,0.5273513793945312,-0.04619598388671875,0.19149446487426758
1764634074874111500,20.552111572265623,0.37325286865234375,-0.21367335319519043,0.004604816436767578
1764634074890876200,20.568876220703125,0.365567684173584,-0.27886533737182617,-0.04305553436279297
1764634074907607800,20.58560791015625,0.5469827651977539,-0.27382516860961914,-0.09803009033203125
1764634074924369000,20.602368896484375,0.896946907043457,-0.2072277069091797,0.010756492614746094
1764634074941100500,20.6191005859375,1.427537441253662,-0.04050421714782715,0.3667268753051758
1764634074957858300,20.6358583984375,1.6285076141357422,0.26365435123443604,0.8509182929992676
1764634074974612700,20.65261279296875,1.393620491027832,0.4786567687988281,1.1857929229736328
1764634074991355100,20.669355224609376,1.2727198600769043,0.7405247688293457,1.769998550415039
1764634075008098000,20.68609814453125,1.287806510925293,1.0612473487854004,2.2673025131225586
1764634075024867800,20.702867919921875,1.4377155303955078,1.1219522953033447,2.2481822967529297
1764634075041600800,20.719600830078125,2.0171165466308594,0.9781745672225952,1.957444190979004
1764634075058353400,20.736353515625,2.662928581237793,0.8510561585426331,1.9268417358398438
1764634075075084500,20.75308447265625,3.0458264350891113,0.695698618888855,2.073423385620117
1764634075091834000,20.769834228515624,2.948976516723633,0.47407883405685425,2.2867164611816406
1764634075108582000,20.786581787109377,2.7470383644104004,0.27833908796310425,2.2730164527893066
1764634075125325800,20.803325927734374,2.7763891220092773,0.056917786598205566,2.0047450065612793
1764634075142073900,20.820073974609375,2.9077706336975098,-0.2515711188316345,1.5726923942565918
1764634075158817800,20.83681787109375,3.1362948417663574,-0.5550611019134521,1.2747554779052734
1764634075175569000,20.85356884765625,2.9154629707336426,-0.7206318974494934,1.3107481002807617
1764634075192313000,20.87031298828125,2.3015851974487305,-0.9818964004516602,1.2127766609191895
1764634075209056000,20.887055908203124,1.8113374710083008,-1.2639607191085815,1.1249151229858398
1764634075225809700,20.9038095703125,1.5730781555175781,-1.4273945093154907,1.1617465019226074
1764634075242568700,20.920568603515626,1.4598398208618164,-1.5603091716766357,1.2618565559387207
1764634075259309800,20.937309814453126,1.3779573440551758,-1.729562759399414,1.1796631813049316
1764634075276047000,20.954047119140625,1.3204765319824219,-1.7635514736175537,1.160658836364746
1764634075292792000,20.9707919921875,1.076909065246582,-1.8281197547912598,1.1650257110595703
1764634075309538800,20.987538818359376,0.8724594116210938,-1.8485219478607178,1.2055516242980957
1764634075326284800,21.004284912109377,0.44386863708496094,-1.7266511917114258,1.3462047576904297
1764634075343031800,21.02103173828125,-0.07744884490966797,-1.727248191833496,1.6222944259643555
1764634075359774000,21.03777392578125,0.09199905395507812,-1.6129201650619507,1.9448912143707275
1764634075376544500,21.05454443359375,0.4274578094482422,-1.6104161739349365,1.854318380355835
