time,seconds_elapsed,z,y,x
1764634054552270300,0.230270263671875,4.551297664642334,8.686473846435547,-0.25876474380493164
1764634054569014500,0.2470146484375,4.555745601654053,8.681530952453613,-0.33514517545700073
1764634054585760800,0.2637607421875,4.652322769165039,8.629520416259766,-0.35125628113746643
1764634054602498000,0.280498046875,4.824090480804443,8.535848617553711,-0.3217918872833252
1764634054619256300,0.29725634765625,5.037229537963867,8.413582801818848,-0.2721206545829773
1764634054636012000,0.314011962890625,5.257071495056152,8.27989387512207,-0.20655173063278198
1764634054652751000,0.330751220703125,5.463573455810547,8.14684772491455,-0.11974425613880157
1764634054669487900,0.34748779296875,5.650872230529785,8.018952369689941,-0.012478835880756378
1764634054686240800,0.36424072265625,5.827733993530273,7.890604019165039,0.10960372537374496
1764634054702988300,0.38098828125,6.012751579284668,7.7475457191467285,0.2417891025543213
1764634054719733000,0.39773291015625,6.214154243469238,7.581973075866699,0.36618393659591675
1764634054736482600,0.414482666015625,6.421885967254639,7.401205539703369,0.4665335714817047
1764634054753236500,0.431236572265625,6.630273818969727,7.2104716300964355,0.5335537791252136
1764634054769969200,0.44796923828125,6.842492580413818,7.0070013999938965,0.5642218589782715
1764634054786732500,0.464732666015625,7.051180362701416,6.797115802764893,0.5622940063476562
1764634054803484200,0.481484130859375,7.237417697906494,6.601125717163086,0.5301331281661987
1764634054820246300,0.498246337890625,7.39224910736084,6.432516574859619,0.4620572328567505
1764634054836954000,0.5149541015625,7.524326801300049,6.283241271972656,0.3761698305606842
1764634054853711000,0.531711181640625,7.637942314147949,6.1503682136535645,0.2663170099258423
1764634054870455600,0.54845556640625,7.732738971710205,6.034554958343506,0.15814556181430817
1764634054887189800,0.565189697265625,7.826503276824951,5.9142961502075195,0.055216722190380096
1764634054903950600,0.58195068359375,7.925923824310303,5.780481815338135,-0.0433635376393795
1764634054920689400,0.598689453125,8.027538299560547,5.6374969482421875,-0.11559566110372543
1764634054937454600,0.61545458984375,8.130067825317383,5.488134860992432,-0.13594718277454376
1764634054954198800,0.63219873046875,8.235250473022461,5.330057621002197,-0.0851135328412056
1764634054970926800,0.6489267578125,8.344805717468262,5.1574883460998535,0.025406738743185997
1764634054987688400,0.6656884765625,8.456079483032227,4.969980239868164,0.1735580861568451
1764634055004438000,0.68243798828125,8.560301780700684,4.779351711273193,0.339321106672287
1764634055021164300,0.699164306640625,8.660818099975586,4.58591890335083,0.44235679507255554
1764634055037895400,0.7158955078125,8.75359058380127,4.398079872131348,0.5173520445823669
1764634055054663700,0.73266357421875,8.833552360534668,4.222268581390381,0.6139345765113831
1764634055071411000,0.749410888671875,8.89777660369873,4.064642429351807,0.7378091812133789
1764634055088158000,0.766157958984375,8.951160430908203,3.918198823928833,0.872100293636322
1764634055104899000,0.782899169921875,9.004995346069336,3.759798765182495,1.0050326585769653
1764634055121666800,0.799666748046875,9.067763328552246,3.567279100418091,1.1341537237167358
1764634055138411300,0.816411376953125,9.139726638793945,3.3173744678497314,1.30250883102417
1764634055155154000,0.83315380859375,9.20644760131836,3.0075466632843018,1.5595197677612305
1764634055171902000,0.84990185546875,9.244661331176758,2.6960158348083496,1.871854305267334
1764634055188649500,0.8666494140625,9.24121379852295,2.456575393676758,2.1911888122558594
1764634055205387300,0.88338720703125,9.198906898498535,2.3177032470703125,2.4988930225372314
1764634055222148600,0.900148681640625,9.130194664001465,2.2556862831115723,2.7906174659729004
1764634055238887700,0.9168876953125,9.064626693725586,2.202131986618042,3.0363218784332275
1764634055255633000,0.9336328125,9.0177001953125,2.1006252765655518,3.241074323654175
1764634055272365000,0.950364990234375,8.995697021484375,1.927788257598877,3.405461311340332
1764634055289116400,0.967116455078125,8.979686737060547,1.7207353115081787,3.5553348064422607
1764634055305861000,0.983861083984375,8.941243171691895,1.5075366497039795,3.7440109252929688
1764634055322608600,1.000608642578125,8.89885425567627,1.2154896259307861,3.9457690715789795
1764634055339353300,1.017353271484375,8.866174697875977,0.844423770904541,4.1126627922058105
1764634055356102100,1.03410205078125,8.847543716430664,0.4274269640445709,4.215968608856201
1764634055372847600,1.05084765625,8.870902061462402,0.013803376816213131,4.188437461853027
1764634055389594400,1.067594482421875,8.925210952758789,-0.2916863262653351,4.060990333557129
1764634055406339000,1.084339111328125,8.975773811340332,-0.4011966288089752,3.938354253768921
1764634055423076000,1.101076171875,9.02978515625,-0.26777252554893494,3.824578046798706
1764634055439847000,1.117846923828125,9.09212875366211,0.10740794986486435,3.6820871829986572
1764634055456591400,1.13459130859375,9.093113899230957,0.6413565278053284,3.6249194145202637
1764634055473323300,1.1513232421875,8.979316711425781,1.1558209657669067,3.777837038040161
1764634055490073000,1.168072998046875,8.839876174926758,1.55843186378479,3.9577748775482178
1764634055506819800,1.18481982421875,8.73840045928955,1.8203386068344116,4.069746971130371
1764634055523566000,1.201566162109375,8.694985389709473,2.027728796005249,4.064684867858887
1764634055540311600,1.2183115234375,8.673370361328125,2.232651472091675,4.0030012130737305
1764634055557044500,1.23504443359375,8.650529861450195,2.440027952194214,3.9307401180267334
1764634055573807400,1.251807373046875,8.617255210876465,2.6496899127960205,3.8675787448883057
1764634055590550500,1.268550537109375,8.565576553344727,2.8632614612579346,3.8299787044525146
1764634055607282400,1.285282470703125,8.489534378051758,3.0819602012634277,3.8295483589172363
1764634055624044800,1.302044921875,8.386343955993652,3.3030059337615967,3.872403144836426
1764634055640788700,1.318788818359375,8.25536823272705,3.532026529312134,3.9509222507476807
1764634055657524000,1.33552392578125,8.118370056152344,3.755584239959717,4.027873516082764
1764634055674304000,1.352303955078125,8.00082015991211,3.947544813156128,4.0792012214660645
1764634055691044900,1.369044921875,7.917983055114746,4.088707447052002,4.1017231941223145
1764634055707769300,1.385769287109375,7.868858814239502,4.182426452636719,4.101765155792236
1764634055724545000,1.402544921875,7.834035396575928,4.231210231781006,4.1183552742004395
1764634055741279700,1.41927978515625,7.809520721435547,4.230271339416504,4.165609836578369
1764634055758011000,1.436010986328125,7.819428443908691,4.176747798919678,4.2008843421936035
1764634055774770200,1.452770263671875,7.920377731323242,4.024144172668457,4.16052770614624
1764634055791526700,1.469526611328125,8.108135223388672,3.757633686065674,4.046534538269043
1764634055808247000,1.4862470703125,8.318785667419434,3.5073530673980713,3.83827805519104
1764634055824998000,1.502997802734375,8.464783668518066,3.4328012466430664,3.5776290893554688
1764634055841745400,1.519745361328125,8.482258796691895,3.5809426307678223,3.385890007019043
1764634055858499600,1.53649951171875,8.399504661560059,3.852517604827881,3.2928013801574707
1764634055875240200,1.553240234375,8.285968780517578,4.126900672912598,3.2476940155029297
1764634055891987000,1.569987060546875,8.191203117370605,4.3517351150512695,3.1941685676574707
1764634055908721400,1.586721435546875,8.128341674804688,4.535851001739502,3.097133159637451
1764634055925480000,1.60347998046875,8.080301284790039,4.714989185333252,2.951901435852051
1764634055942227200,1.620227294921875,7.995749473571777,4.911733627319336,2.8598902225494385
1764634055958973200,1.63697314453125,7.852359771728516,5.147982597351074,2.8416244983673096
1764634055975727900,1.653727783203125,7.6638898849487305,5.41860818862915,2.8529982566833496
1764634055992458200,1.670458251953125,7.464339256286621,5.695372104644775,2.8429713249206543
1764634056009213400,1.68721337890625,7.262729644775391,5.967008590698242,2.807788610458374
1764634056025959000,1.703958984375,7.047076225280762,6.243330955505371,2.7560207843780518
1764634056042706400,1.72070654296875,6.808895587921143,6.54331636428833,2.6570749282836914
1764634056059453200,1.737453125,6.547005653381348,6.868363380432129,2.4896626472473145
1764634056076198000,1.754197998046875,6.270532131195068,7.195960521697998,2.265983819961548
1764634056092961500,1.77096142578125,5.974678039550781,7.512866497039795,2.023902416229248
1764634056109760000,1.787760009765625,5.643268585205078,7.823143005371094,1.7855172157287598
1764634056126450400,1.804450439453125,5.267151832580566,8.126105308532715,1.5683252811431885
1764634056143197200,1.821197265625,4.845659255981445,8.421289443969727,1.3555703163146973
1764634056159944400,1.8379443359375,4.40147066116333,8.694114685058594,1.1293941736221313
1764634056176690000,1.85468994140625,3.962700605392456,8.930723190307617,0.8805117607116699
1764634056193437200,1.871437255859375,3.5484416484832764,9.125478744506836,0.6085267663002014
1764634056210165800,1.888165771484375,3.1633403301239014,9.280555725097656,0.3173023760318756
1764634056226932500,1.904932373046875,2.7857730388641357,9.406139373779297,0.011656132526695728
1764634056243673600,1.921673583984375,2.3947644233703613,9.5086088180542,-0.2959454357624054
1764634056260423700,1.938423583984375,1.980644702911377,9.58981990814209,-0.5903714895248413
1764634056277168400,1.95516845703125,1.5500770807266235,9.647941589355469,-0.8663761615753174
1764634056293910300,1.97191015625,1.1159343719482422,9.682432174682617,-1.1141513586044312
1764634056310664400,1.98866455078125,0.6802899241447449,9.695992469787598,-1.3270525932312012
1764634056327397400,2.0053974609375,0.239188551902771,9.691685676574707,-1.500040054321289
1764634056344141300,2.022141357421875,-0.2049589455127716,9.669103622436523,-1.6439365148544312
1764634056360888000,2.03888818359375,-0.6388700008392334,9.627355575561523,-1.7725633382797241
1764634056377637400,2.055637451171875,-1.059942364692688,9.571900367736816,-1.868523120880127
1764634056394381300,2.07238134765625,-1.4512319564819336,9.51052188873291,-1.9183399677276611
1764634056411131400,2.08913134765625,-1.818495273590088,9.44460391998291,-1.930968165397644
1764634056427887600,2.1058876953125,-2.1851139068603516,9.370738983154297,-1.9106663465499878
1764634056444632000,2.122632080078125,-2.5517494678497314,9.285082817077637,-1.8740113973617554
1764634056461365200,2.139365234375,-2.8913543224334717,9.19369125366211,-1.8309155702590942
1764634056478116000,2.1561162109375,-3.181119441986084,9.105997085571289,-1.7881388664245605
1764634056494860500,2.172860595703125,-3.423121690750122,9.026086807250977,-1.7458891868591309
1764634056511606500,2.1896064453125,-3.6326375007629395,8.951330184936523,-1.706973910331726
1764634056528355000,2.20635498046875,-3.81705379486084,8.881926536560059,-1.666612982749939
1764634056545102300,2.223102294921875,-3.969503164291382,8.823735237121582,-1.618914008140564
1764634056561846800,2.2398466796875,-4.083370685577393,8.780131340026855,-1.572094440460205
1764634056578579700,2.256579833984375,-4.1435956954956055,8.751246452331543,-1.575569748878479
1764634056595339300,2.27333935546875,-4.191190242767334,8.725590705871582,-1.5918916463851929
1764634056612072700,2.29007275390625,-4.237279415130615,8.701897621154785,-1.5995652675628662
1764634056628833500,2.30683349609375,-4.286229610443115,8.676294326782227,-1.6081875562667847
1764634056645574400,2.323574462890625,-4.334123134613037,8.651385307312012,-1.614018440246582
1764634056662329600,2.34032958984375,-4.362835884094238,8.633953094482422,-1.6299231052398682
1764634056679087400,2.35708740234375,-4.357004165649414,8.630651473999023,-1.6626791954040527
1764634056695836200,2.373836181640625,-4.315232276916504,8.641870498657227,-1.7126045227050781
1764634056712578000,2.390578125,-4.254586219787598,8.659513473510742,-1.7741084098815918
1764634056729323800,2.40732373046875,-4.189285755157471,8.67770767211914,-1.839401364326477
1764634056746073300,2.4240732421875,-4.118670463562012,8.696901321411133,-1.9069864749908447
1764634056762815700,2.440815673828125,-4.031529903411865,8.721946716308594,-1.9775077104568481
1764634056779562800,2.457562744140625,-3.919860601425171,8.755570411682129,-2.0520243644714355
1764634056796308700,2.474308837890625,-3.786165237426758,8.795618057250977,-2.1302974224090576
1764634056813041400,2.49104150390625,-3.6447417736053467,8.83660888671875,-2.2059762477874756
1764634056829768700,2.507768798828125,-3.5054521560668945,8.875606536865234,-2.2740960121154785
1764634056846536000,2.524535888671875,-3.3632843494415283,8.914583206176758,-2.3355257511138916
1764634056863283700,2.54128369140625,-3.1990087032318115,8.957647323608398,-2.400635242462158
1764634056880030200,2.5580302734375,-2.9936068058013916,9.009634971618652,-2.470004081726074
1764634056896785000,2.574784912109375,-2.7475669384002686,9.071826934814453,-2.5276424884796143
1764634056913538800,2.591538818359375,-2.477677583694458,9.134516716003418,-2.580275535583496
1764634056930281700,2.60828173828125,-2.195197343826294,9.189179420471191,-2.641253709793091
1764634056947004700,2.625004638671875,-1.901843547821045,9.236391067504883,-2.7033681869506836
1764634056963758600,2.641758544921875,-1.5923149585723877,9.285309791564941,-2.7356317043304443
1764634056980508700,2.6585087890625,-1.261357307434082,9.336844444274902,-2.732842445373535
1764634056997256200,2.675256103515625,-0.8893445730209351,9.383684158325195,-2.718764543533325
1764634057013997600,2.69199755859375,-0.4624115824699402,9.420374870300293,-2.6979331970214844
1764634057030748400,2.70874853515625,0.008350993506610394,9.444733619689941,-2.6519877910614014
1764634057047495400,2.725495361328125,0.49588921666145325,9.454286575317383,-2.570348024368286
1764634057064240400,2.742240478515625,0.9865326285362244,9.446842193603516,-2.453580856323242
1764634057080983600,2.758983642578125,1.4916630983352661,9.418002128601074,-2.304842233657837
1764634057097739500,2.775739501953125,2.0127148628234863,9.363049507141113,-2.125650644302368
1764634057114486000,2.792486083984375,2.52666974067688,9.28219223022461,-1.9217067956924438
1764634057131238100,2.809238037109375,3.027269124984741,9.171903610229492,-1.7169572114944458
1764634057147987700,2.82598779296875,3.5055391788482666,9.036214828491211,-1.5146347284317017
1764634057164732000,2.84273193359375,3.9465885162353516,8.88730525970459,-1.2947443723678589
1764634057181457000,2.859456787109375,4.3554816246032715,8.727458953857422,-1.0475486516952515
1764634057198228700,2.876228759765625,4.737435817718506,8.554854393005371,-0.7792812585830688
1764634057214971000,2.892970947265625,5.120203971862793,8.352705955505371,-0.5019209384918213
1764634057231714300,2.90971435546875,5.534543514251709,8.096600532531738,-0.2236197590827942
1764634057248451800,2.926451904296875,5.9730610847473145,7.781628131866455,0.07009963691234589
1764634057265209300,2.943209228515625,6.375967502593994,7.445047378540039,0.39296507835388184
1764634057281936600,2.9599365234375,6.6969122886657715,7.130335807800293,0.7387828826904297
1764634057298703400,2.976703369140625,6.955726623535156,6.830390930175781,1.095327377319336
1764634057315437000,2.99343701171875,7.185902118682861,6.520864486694336,1.4412696361541748
1764634057332185000,3.01018505859375,7.388857841491699,6.201834201812744,1.7827351093292236
1764634057348931800,3.026931884765625,7.549042701721191,5.892618179321289,2.1272315979003906
1764634057365672700,3.043672607421875,7.666927814483643,5.599240303039551,2.470393180847168
1764634057382412500,3.06041259765625,7.752604961395264,5.320326328277588,2.797741174697876
1764634057399174700,3.077174560546875,7.815248489379883,5.043422698974609,3.1179959774017334
1764634057415914000,3.0939140625,7.86034631729126,4.759769916534424,3.434481143951416
1764634057432673500,3.110673583984375,7.884187698364258,4.47148323059082,3.752537250518799
1764634057449407700,3.12740771484375,7.883645057678223,4.18141508102417,4.074312210083008
1764634057466155500,3.144155517578125,7.8712944984436035,3.889371156692505,4.376256465911865
1764634057482894300,3.160894287109375,7.852001667022705,3.610893726348877,4.6415114402771
1764634057499653600,3.177653564453125,7.819436073303223,3.3631057739257812,4.876683712005615
1764634057516394800,3.194394775390625,7.771424770355225,3.1478431224823,5.0923614501953125
1764634057533142800,3.211142822265625,7.70974588394165,2.9453392028808594,5.302915096282959
1764634057549887200,3.22788720703125,7.633780002593994,2.7334446907043457,5.521755695343018
1764634057566643000,3.244642822265625,7.5523295402526855,2.512578010559082,5.734577655792236
1764634057583399700,3.261399658203125,7.469722270965576,2.2987544536590576,5.929172992706299
1764634057600141800,3.278141845703125,7.386981010437012,2.110135555267334,6.100488185882568
1764634057616852000,3.29485205078125,7.3057122230529785,1.9377386569976807,6.253626823425293
1764634057633639400,3.311639404296875,7.2476277351379395,1.7654775381088257,6.3711137771606445
1764634057650362400,3.3283623046875,7.232199668884277,1.592956781387329,6.43380880355835
1764634057667123200,3.345123291015625,7.232614517211914,1.4019103050231934,6.477658271789551
1764634057683857400,3.361857421875,7.223647594451904,1.2070033550262451,6.526727676391602
1764634057700625400,3.37862548828125,7.198287010192871,1.0311506986618042,6.584641456604004
1764634057717332000,3.39533203125,7.155019283294678,0.8832588195800781,6.6529436111450195
1764634057734082300,3.412082275390625,7.091595649719238,0.749829113483429,6.736700057983398
1764634057750831600,3.42883154296875,7.0228495597839355,0.6368591785430908,6.8198323249816895
1764634057767593500,3.445593505859375,6.9656147956848145,0.548215389251709,6.88591194152832
1764634057784340200,3.46234033203125,6.930556297302246,0.4769226014614105,6.926474571228027
1764634057801083000,3.479082763671875,6.911684989929199,0.4110598564147949,6.949514389038086
1764634057817821400,3.495821533203125,6.89613151550293,0.344845712184906,6.968541145324707
1764634057834579700,3.512579833984375,6.8771748542785645,0.28524795174598694,6.989936828613281
1764634057851326000,3.529325927734375,6.846704006195068,0.23618659377098083,7.021608352661133
1764634057868072700,3.54607275390625,6.799489974975586,0.1992965042591095,7.068474769592285
1764634057884803300,3.56280322265625,6.744516372680664,0.17794246971607208,7.1215128898620605
1764634057901581600,3.57958154296875,6.694865703582764,0.16565659642219543,7.168503761291504
1764634057918321400,3.5963212890625,6.657939434051514,0.1515379101037979,7.203123092651367
1764634057935055600,3.6130556640625,6.6376142501831055,0.13472336530685425,7.222189903259277
1764634057951804700,3.6298046875,6.628119945526123,0.11622393876314163,7.231225967407227
1764634057968551200,3.64655126953125,6.621423721313477,0.10331504046916962,7.23755407333374
1764634057985297700,3.663297607421875,6.611534118652344,0.10211636126041412,7.246605396270752
1764634058002045000,3.680044921875,6.602269172668457,0.11010628938674927,7.2549309730529785
1764634058018790400,3.696790283203125,6.601524829864502,0.12417557090520859,7.255381107330322
1764634058035553500,3.713553466796875,6.615469932556152,0.14627453684806824,7.242255210876465
1764634058052278000,3.730278076171875,6.644711971282959,0.17922885715961456,7.21469259262085
1764634058069043000,3.74704296875,6.683025360107422,0.2242959886789322,7.177951812744141
1764634058085785000,3.76378515625,6.730583667755127,0.283858060836792,7.131254196166992
1764634058102524400,3.7805244140625,6.784818172454834,0.3579989969730377,7.07631254196167
1764634058119269600,3.79726953125,6.842949867248535,0.4452964663505554,7.0151166915893555
1764634058136016400,3.814016357421875,6.898838996887207,0.5424918532371521,6.953261375427246
1764634058152762400,3.830762451171875,6.947017669677734,0.6501513719558716,6.895822048187256
1764634058169509000,3.847509033203125,6.995393753051758,0.7729805707931519,6.8339643478393555
1764634058186255600,3.864255615234375,7.075009822845459,0.9084734320640564,6.73461389541626
1764634058203018800,3.881018798828125,7.168075084686279,1.0409663915634155,6.615981101989746
1764634058219755300,3.89775537109375,7.279467582702637,1.1871920824050903,6.46807861328125
1764634058236489000,3.914489013671875,7.399588108062744,1.3445898294448853,6.298752307891846
1764634058253259000,3.931259033203125,7.501185894012451,1.5184603929519653,6.136986255645752
1764634058269978400,3.947978271484375,7.5663604736328125,1.7031112909317017,6.007138252258301
1764634058286725400,3.964725341796875,7.595325469970703,1.903610110282898,5.909602642059326
1764634058303480800,3.981480712890625,7.613669395446777,2.1434407234191895,5.802914619445801
1764634058320224000,3.99822412109375,7.659481048583984,2.433997869491577,5.62531042098999
1764634058336977400,4.014977294921875,7.760373115539551,2.748635768890381,5.334577560424805
1764634058353720000,4.031719970703125,7.9123334884643555,3.0592215061187744,4.926688194274902
1764634058370467000,4.048467041015625,8.069636344909668,3.3615031242370605,4.451672077178955
1764634058387195000,4.06519482421875,8.187877655029297,3.664456367492676,3.9707086086273193
1764634058403962600,4.081962646484375,8.248221397399902,3.991290807723999,3.5032196044921875
1764634058420690400,4.0986904296875,8.2396240234375,4.353585720062256,3.064471483230591
1764634058437437700,4.115437744140625,8.168619155883789,4.742836952209473,2.648634195327759
1764634058454195700,4.13219580078125,8.047967910766602,5.143450736999512,2.238577365875244
1764634058470950000,4.148949951171875,7.886792182922363,5.538631916046143,1.8325327634811401
1764634058487690200,4.165690185546875,7.688812732696533,5.9215826988220215,1.4328711032867432
1764634058504438800,4.182438720703125,7.456940174102783,6.289186954498291,1.037433385848999
1764634058521185000,4.19918505859375,7.198373794555664,6.6336350440979,0.6437501311302185
1764634058537928000,4.215927978515625,6.914913654327393,6.954128742218018,0.24531175196170807
1764634058554681600,4.232681640625,6.6079277992248535,7.249091148376465,-0.14860084652900696
1764634058571417600,4.24941748046875,6.275864124298096,7.521638870239258,-0.5240201950073242
1764634058588170800,4.266170654296875,5.9191789627075195,7.77299165725708,-0.8831942081451416
1764634058604915700,4.282915771484375,5.546187400817871,7.997459411621094,-1.2314906120300293
1764634058621665800,4.299665771484375,5.162957668304443,8.19275188446045,-1.5680551528930664
1764634058638395100,4.31639501953125,4.772166728973389,8.357329368591309,-1.9019911289215088
1764634058655157000,4.333156982421875,4.376817226409912,8.486418724060059,-2.2495055198669434
1764634058671902700,4.34990283203125,3.973083019256592,8.580951690673828,-2.6111299991607666
1764634058688650500,4.366650390625,3.5590155124664307,8.645106315612793,-2.9718127250671387
1764634058705399300,4.3833994140625,3.123404026031494,8.690673828125,-3.309479236602783
1764634058722138400,4.400138427734375,2.6490156650543213,8.729347229003906,-3.6079518795013428
1764634058738887400,4.416887451171875,2.1464121341705322,8.761335372924805,-3.8559088706970215
1764634058755634700,4.433634765625,1.646437406539917,8.781261444091797,-4.051521301269531
1764634058772389600,4.4503896484375,1.1743108034133911,8.784153938293457,-4.206632614135742
1764634058789125400,4.46712548828125,0.740848958492279,8.768917083740234,-4.33513069152832
1764634058805875700,4.483875732421875,0.32720112800598145,8.738357543945312,-4.446366310119629
1764634058822621400,4.500621337890625,-0.07141555845737457,8.694157600402832,-4.543416976928711
1764634058839368000,4.517367919921875,-0.45006489753723145,8.638572692871094,-4.626945972442627
1764634058856114700,4.53411474609375,-0.8226597309112549,8.575393676757812,-4.692758083343506
1764634058872861200,4.550861083984375,-1.1975948810577393,8.508925437927246,-4.732870578765869
1764634058889623600,4.56762353515625,-1.5698421001434326,8.43933391571045,-4.748619079589844
1764634058906351000,4.58435107421875,-1.915440320968628,8.370537757873535,-4.743550777435303
1764634058923084800,4.601084716796875,-2.230818510055542,8.308389663696289,-4.714893341064453
1764634058939847200,4.61784716796875,-2.513735055923462,8.256576538085938,-4.6632843017578125
1764634058956593700,4.63459375,-2.7507503032684326,8.21363639831543,-4.604964733123779
1764634058973340200,4.651340087890625,-2.9339656829833984,8.180278778076172,-4.550939083099365
1764634058990086400,4.66808642578125,-3.066884994506836,8.16106128692627,-4.497490406036377
1764634059006849800,4.684849853515625,-3.160590171813965,8.156949996948242,-4.439703464508057
1764634059023592400,4.701592529296875,-3.227891206741333,8.16115951538086,-4.383184909820557
1764634059040338400,4.71833837890625,-3.2857091426849365,8.16757583618164,-4.327925205230713
1764634059057085400,4.73508544921875,-3.3370461463928223,8.17547607421875,-4.273388862609863
1764634059073832700,4.751832763671875,-3.379901647567749,8.183624267578125,-4.223824977874756
1764634059090578200,4.768578125,-3.409653902053833,8.191115379333496,-4.185210704803467
1764634059107325200,4.7853251953125,-3.4262986183166504,8.199103355407715,-4.155879497528076
1764634059124071400,4.802071533203125,-3.430645227432251,8.208218574523926,-4.134238243103027
1764634059140813000,4.81881298828125,-3.4200477600097656,8.219990730285645,-4.1196064949035645
1764634059157569000,4.835569091796875,-3.3908944129943848,8.234451293945312,-4.1148247718811035
1764634059174311200,4.852311279296875,-3.3411343097686768,8.253252983093262,-4.117859363555908
1764634059191057200,4.86905712890625,-3.272278308868408,8.277753829956055,-4.123965263366699
1764634059207804400,4.885804443359375,-3.188127040863037,8.305830955505371,-4.133418560028076
1764634059224542200,4.902542236328125,-3.0834245681762695,8.337389945983887,-4.149285316467285
1764634059241304300,4.91930419921875,-2.971555471420288,8.369522094726562,-4.1661858558654785
1764634059258043400,4.93604345703125,-2.8714826107025146,8.399933815002441,-4.175143241882324
1764634059274787000,4.952787109375,-2.7935354709625244,8.427282333374023,-4.172908306121826
1764634059291519500,4.96951953125,-2.7359397411346436,8.45211124420166,-4.160838603973389
1764634059308273200,4.986273193359375,-2.6923742294311523,8.476128578186035,-4.140349388122559
1764634059325016000,5.00301611328125,-2.6441268920898438,8.502762794494629,-4.116759777069092
1764634059341762600,5.019762451171875,-2.570861577987671,8.535569190979004,-4.095222473144531
1764634059358508800,5.0365087890625,-2.462862491607666,8.574128150939941,-4.081027984619141
1764634059375254000,5.05325390625,-2.3189074993133545,8.617733001708984,-4.073507785797119
1764634059392003000,5.070003173828125,-2.141873598098755,8.666550636291504,-4.066864013671875
1764634059408748800,5.086748779296875,-1.9378907680511475,8.717093467712402,-4.061155319213867
1764634059425494500,5.10349462890625,-1.7022210359573364,8.766310691833496,-4.060831546783447
1764634059442238000,5.120238037109375,-1.4372071027755737,8.814216613769531,-4.059575080871582
1764634059458991000,5.1369912109375,-1.1521947383880615,8.85787582397461,-4.055439472198486
1764634059475734500,5.153734619140625,-0.8561353087425232,8.894752502441406,-4.04802942276001
1764634059492480500,5.17048046875,-0.5407364964485168,8.92584228515625,-4.033989429473877
1764634059509225500,5.1872255859375,-0.20197366178035736,8.948928833007812,-4.013974666595459
1764634059525976000,5.20397607421875,0.1457091122865677,8.959854125976562,-3.9919803142547607
1764634059542720500,5.220720458984375,0.489269882440567,8.961413383483887,-3.9610347747802734
1764634059559466800,5.237466796875,0.8355250358581543,8.959671020507812,-3.906698226928711
1764634059576210200,5.254210205078125,1.193001627922058,8.95480728149414,-3.824171781539917
1764634059592962300,5.27096240234375,1.5782009363174438,8.939383506774902,-3.719249963760376
1764634059609689900,5.28768994140625,1.9985289573669434,8.905925750732422,-3.5953447818756104
1764634059626452200,5.3044521484375,2.451751708984375,8.84476089477539,-3.463414430618286
1764634059643198700,5.32119873046875,2.9192612171173096,8.752910614013672,-3.331754446029663
1764634059659941000,5.337941162109375,3.371563673019409,8.638520240783691,-3.2007250785827637
1764634059676697000,5.354697021484375,3.7945191860198975,8.514975547790527,-3.0549840927124023
1764634059693451500,5.371451416015625,4.202347278594971,8.382468223571777,-2.8828134536743164
1764634059710183400,5.388183349609375,4.602541923522949,8.236342430114746,-2.686147928237915
1764634059726933000,5.40493310546875,4.99476432800293,8.077086448669434,-2.4594931602478027
1764634059743678500,5.421678466796875,5.375460624694824,7.90609884262085,-2.1986684799194336
1764634059760420400,5.43842041015625,5.749746799468994,7.715322971343994,-1.9105783700942993
1764634059777174800,5.4551748046875,6.112893104553223,7.500796318054199,-1.6145274639129639
1764634059793917700,5.471917724609375,6.447352886199951,7.2761945724487305,-1.3132902383804321
1764634059810664200,5.488664306640625,6.7617645263671875,7.03643798828125,-1.0015980005264282
1764634059827407400,5.505407470703125,7.061837196350098,6.7761969566345215,-0.6706098914146423
1764634059844159700,5.52215966796875,7.335012435913086,6.507014751434326,-0.3040631115436554
1764634059860903200,5.538903076171875,7.565054416656494,6.244633197784424,0.10303525626659393
1764634059877650400,5.555650390625,7.7476043701171875,5.995059013366699,0.5196099281311035
1764634059894396000,5.57239599609375,7.899435520172119,5.743093490600586,0.9229922294616699
1764634059911142700,5.589142578125,8.047860145568848,5.457726955413818,1.296638011932373
1764634059927889400,5.605889404296875,8.19808578491211,5.132068157196045,1.639936089515686
1764634059944636200,5.62263623046875,8.33359432220459,4.787479877471924,1.9665566682815552
1764634059961382000,5.6393818359375,8.445652961730957,4.440274715423584,2.2783796787261963
1764634059978145000,5.65614501953125,8.535455703735352,4.091521263122559,2.5771231651306152
1764634059994888700,5.672888671875,8.595985412597656,3.743932008743286,2.8858492374420166
1764634060011634400,5.689634521484375,8.614459037780762,3.4195778369903564,3.2146055698394775
1764634060028381000,5.706380859375,8.59276294708252,3.128694772720337,3.5513110160827637
1764634060045128200,5.723128173828125,8.550539016723633,2.8616178035736084,3.8646509647369385
1764634060061874000,5.7398740234375,8.503344535827637,2.6031951904296875,4.141571521759033
1764634060078621000,5.756620849609375,8.45101261138916,2.350905179977417,4.392009258270264
1764634060095347500,5.773347412109375,8.38989543914795,2.111713409423828,4.624545574188232
1764634060112114000,5.790114013671875,8.318268775939941,1.8879926204681396,4.84541130065918
1764634060128860700,5.806860595703125,8.238219261169434,1.6666991710662842,5.058651447296143
1764634060145602600,5.8236025390625,8.145533561706543,1.434935450553894,5.2751641273498535
1764634060162356500,5.8403564453125,8.040327072143555,1.214414119720459,5.487663745880127
1764634060179100000,5.857099853515625,7.923068046569824,1.0363014936447144,5.69097375869751
1764634060195846000,5.873845947265625,7.804584980010986,0.9028212428092957,5.874476909637451
1764634060212593200,5.89059326171875,7.701949119567871,0.788662850856781,6.024457931518555
1764634060229322500,5.907322509765625,7.6191911697387695,0.6711568832397461,6.142766952514648
1764634060246068700,5.92406884765625,7.552440166473389,0.5453815460205078,6.236932277679443
1764634060262822700,5.94082275390625,7.493564605712891,0.41539090871810913,6.317440986633301
1764634060279565800,5.95756591796875,7.437542915344238,0.27856165170669556,6.390733242034912
1764634060296311600,5.9743115234375,7.386950969696045,0.13478651642799377,6.453751087188721
1764634060313058600,5.99105859375,7.339402675628662,-0.003848637454211712,6.509167671203613
1764634060329785300,6.007785400390625,7.288851737976074,-0.12809115648269653,6.564476490020752
1764634060346550300,6.02455029296875,7.225715160369873,-0.23614946007728577,6.630941867828369
1764634060363297300,6.04129736328125,7.146626949310303,-0.32176467776298523,6.712548732757568
1764634060380042000,6.0580419921875,7.0560173988342285,-0.3930726647377014,6.803985118865967
1764634060396789800,6.074789794921875,6.9615654945373535,-0.4628875255584717,6.896264553070068
1764634060413541400,6.091541259765625,6.8710832595825195,-0.5380631685256958,6.981032371520996
1764634060430283800,6.10828369140625,6.799456596374512,-0.6223832368850708,7.043871879577637
1764634060447030500,6.125030517578125,6.78892707824707,-0.7187073230743408,7.044860363006592
1764634060463776800,6.14177685546875,6.827409744262695,-0.8009873032569885,6.998643398284912
1764634060480523500,6.1585234375,6.862025737762451,-0.8374294638633728,6.960418701171875
1764634060497269200,6.175269287109375,6.868419170379639,-0.8211847543716431,6.956047058105469
1764634060514016300,6.192016357421875,6.862590312957764,-0.7808588743209839,6.966436386108398
1764634060530762800,6.2087626953125,6.865749359130859,-0.7461424469947815,6.967127799987793
1764634060547509500,6.225509521484375,6.883143901824951,-0.7272977828979492,6.951940536499023
1764634060564255500,6.24225537109375,6.908009052276611,-0.718123197555542,6.928189754486084
1764634060581002000,6.259001953125,6.931036949157715,-0.7130729556083679,6.905675888061523
1764634060597764000,6.27576416015625,6.9485039710998535,-0.7062734961509705,6.888801574707031
1764634060614508300,6.29250830078125,6.953628063201904,-0.6936215758323669,6.884915351867676
1764634060631255000,6.309255126953125,6.947725772857666,-0.6755654215812683,6.892665386199951
1764634060647989800,6.32598974609375,6.94323205947876,-0.651938259601593,6.8994646072387695
1764634060664747300,6.342747314453125,6.946638584136963,-0.620261549949646,6.898956775665283
1764634060681478100,6.35947802734375,6.961193084716797,-0.5839766263961792,6.887444019317627
1764634060698227200,6.376227294921875,6.991474628448486,-0.5442073941230774,6.859973430633545
1764634060714974000,6.392973876953125,7.038966655731201,-0.5003910064697266,6.814592361450195
1764634060731720200,6.40972021484375,7.098944187164307,-0.4530545771121979,6.755431175231934
1764634060748467200,6.42646728515625,7.160888671875,-0.40241914987564087,6.692970275878906
1764634060765213000,6.443212890625,7.2207417488098145,-0.3459131121635437,6.631541728973389
1764634060781959400,6.45995947265625,7.2784037590026855,-0.28152531385421753,6.571277618408203
1764634060798706200,6.4767060546875,7.332260608673096,-0.21362218260765076,6.513710975646973
1764634060815453000,6.493452880859375,7.379961967468262,-0.14844122529029846,6.461442470550537
1764634060832194800,6.51019482421875,7.427567958831787,-0.08541525155305862,6.407811641693115
1764634060848949800,6.52694970703125,7.483186721801758,-0.01668795384466648,6.34332275390625
1764634060865681000,6.543680908203125,7.551080703735352,0.0651131346821785,6.262032508850098
1764634060882443000,6.560443115234375,7.627547740936279,0.16147759556770325,6.166891574859619
1764634060899190300,6.577190185546875,7.7018208503723145,0.2724679708480835,6.069911956787109
1764634060915931400,6.593931396484375,7.770962715148926,0.4087788760662079,5.973369598388672
1764634060932665600,6.61066552734375,7.843291282653809,0.5788612365722656,5.863771915435791
1764634060949428500,6.627428466796875,7.926677227020264,0.7894580364227295,5.725439548492432
1764634060966155300,6.6441552734375,8.027961730957031,1.0491013526916504,5.539613723754883
1764634060982917400,6.66091748046875,8.14848518371582,1.3542896509170532,5.291900157928467
1764634060999663900,6.677663818359375,8.280734062194824,1.6840574741363525,4.982922554016113
1764634061016395300,6.694395263671875,8.410063743591309,2.02046799659729,4.628676891326904
1764634061033156900,6.711156982421875,8.512004852294922,2.3665502071380615,4.263956069946289
1764634061049889000,6.727888916015625,8.564791679382324,2.73697829246521,3.9229331016540527
1764634061066645000,6.74464501953125,8.564109802246094,3.13617205619812,3.6133861541748047
1764634061083396900,6.76139697265625,8.522090911865234,3.5502145290374756,3.3175363540649414
1764634061100142600,6.778142578125,8.451986312866211,3.9625582695007324,3.016317129135132
1764634061116889300,6.794889404296875,8.357239723205566,4.36923885345459,2.702296018600464
1764634061133634600,6.811634521484375,8.232144355773926,4.776161193847656,2.378274917602539
1764634061150396000,6.82839599609375,8.072809219360352,5.180820465087891,2.055466651916504
1764634061167125200,6.845125244140625,7.88301420211792,5.57562780380249,1.733946681022644
1764634061183875000,6.861875,7.672755718231201,5.95086145401001,1.3972039222717285
1764634061200621800,6.878621826171875,7.446476936340332,6.300902366638184,1.0414975881576538
1764634061217368600,6.89536865234375,7.201233386993408,6.628215789794922,0.6671521067619324
1764634061234114300,6.9121142578125,6.939431190490723,6.928690433502197,0.27139824628829956
1764634061250861300,6.928861328125,6.654998779296875,7.206064224243164,-0.1404925137758255
1764634061267603200,6.945603271484375,6.3459062576293945,7.461294651031494,-0.5428265929222107
1764634061284354600,6.9623544921875,6.009734630584717,7.698707580566406,-0.9214715361595154
1764634061301100300,6.979100341796875,5.641088008880615,7.924680233001709,-1.270305871963501
1764634061317847000,6.995846923828125,5.242257118225098,8.138009071350098,-1.589861273765564
1764634061334579000,7.012578857421875,4.827855110168457,8.330465316772461,-1.8791714906692505
1764634061351340300,7.02934033203125,4.389225482940674,8.507214546203613,-2.144318103790283
1764634061368086300,7.046086181640625,3.9309513568878174,8.66688060760498,-2.3809478282928467
1764634061384832800,7.062832763671875,3.469985246658325,8.803925514221191,-2.5857737064361572
1764634061401564200,7.079564208984375,3.019432306289673,8.915087699890137,-2.7641210556030273
1764634061418326300,7.096326171875,2.5895609855651855,9.000411033630371,-2.9193990230560303
1764634061435069400,7.1130693359375,2.189122200012207,9.063142776489258,-3.050130844116211
1764634061451812900,7.129812744140625,1.8215036392211914,9.109070777893066,-3.153263568878174
1764634061468546300,7.14654638671875,1.4731028079986572,9.14371109008789,-3.2339816093444824
1764634061485325600,7.16332568359375,1.1232619285583496,9.169410705566406,-3.300952434539795
1764634061502039300,7.180039306640625,0.7811047434806824,9.184895515441895,-3.35614013671875
1764634061518812000,7.19681201171875,0.4547566771507263,9.190783500671387,-3.3998260498046875
1764634061535576300,7.213576416015625,0.16085106134414673,9.189313888549805,-3.430269718170166
1764634061552316400,7.23031640625,-0.09488072246313095,9.18436336517334,-3.4459517002105713
1764634061577774000,7.255774169921875,-0.4146474301815033,9.179510116577148,-3.435230016708374
1764634061594163700,7.272163818359375,-0.6366741061210632,9.175882339477539,-3.4108574390411377
1764634061610903800,7.28890380859375,-0.8316036462783813,9.174344062805176,-3.372828722000122
1764634061627660300,7.305660400390625,-1.004352331161499,9.175885200500488,-3.3212192058563232
1764634061644403700,7.32240380859375,-1.152590036392212,9.176468849182129,-3.2710957527160645
1764634061661150000,7.33914990234375,-1.2739393711090088,9.175198554992676,-3.2293872833251953
1764634061677896700,7.355896728515625,-1.3641718626022339,9.173152923583984,-3.198194742202759
1764634061694642400,7.372642333984375,-1.434415340423584,9.166901588439941,-3.185352325439453
1764634061711406300,7.38940625,-1.4892938137054443,9.156919479370117,-3.18888258934021
1764634061728129000,7.40612890625,-1.5327125787734985,9.147021293640137,-3.196702241897583
1764634061744892200,7.42289208984375,-1.564414381980896,9.13979721069336,-3.2020046710968018
1764634061761628700,7.439628662109375,-1.5778645277023315,9.135043144226074,-3.2089595794677734
1764634061778375400,7.45637548828125,-1.5651673078536987,9.130674362182617,-3.2275595664978027
1764634061795121400,7.473121337890625,-1.5361641645431519,9.125876426696777,-3.254953622817993
1764634061811868700,7.48986865234375,-1.4985932111740112,9.123013496398926,-3.2803890705108643
1764634061828614400,7.506614501953125,-1.4602729082107544,9.122237205505371,-3.299773693084717
1764634061845361400,7.523361328125,-1.4276716709136963,9.121400833129883,-3.316317319869995
1764634061862092000,7.540092041015625,-1.392307162284851,9.120884895324707,-3.33272385597229
1764634061878854400,7.5568544921875,-1.3436866998672485,9.121506690979004,-3.350928544998169
1764634061895600400,7.573600341796875,-1.2826645374298096,9.124532699584961,-3.366575241088867
1764634061912332000,7.59033203125,-1.2183268070220947,9.128663063049316,-3.3792459964752197
1764634061929093400,7.60709326171875,-1.1651521921157837,9.132597923278809,-3.3873631954193115
1764634061945840400,7.62384033203125,-1.1273809671401978,9.136955261230469,-3.388390302658081
1764634061962624500,7.64062451171875,-1.0912164449691772,9.144350051879883,-3.380268096923828
1764634061979346000,7.657345947265625,-1.039743185043335,9.15507984161377,-3.3674283027648926
1764634061996092200,7.674092041015625,-0.9587864279747009,9.167162895202637,-3.3585689067840576
1764634062012823000,7.690822998046875,-0.8488836288452148,9.17856502532959,-3.357002019882202
1764634062029572400,7.707572265625,-0.7187026739120483,9.1885347366333,-3.3601245880126953
1764634062046319400,7.7243193359375,-0.5712180137634277,9.198402404785156,-3.361428737640381
1764634062063065300,7.7410654296875,-0.3874961733818054,9.20872974395752,-3.35935378074646
1764634062079812000,7.75781201171875,-0.1509110927581787,9.21417236328125,-3.3633878231048584
1764634062096558000,7.77455810546875,0.14431191980838776,9.211101531982422,-3.372077465057373
1764634062113317000,7.791317138671875,0.4815524220466614,9.20107650756836,-3.368145227432251
1764634062130050600,7.808050537109375,0.8364447951316833,9.185845375061035,-3.340167760848999
1764634062146811000,7.824810791015625,1.1905150413513184,9.163464546203613,-3.2938904762268066
1764634062163552000,7.841552001953125,1.5355476140975952,9.131769180297852,-3.238673686981201
1764634062180292000,7.8582919921875,1.8855830430984497,9.08827018737793,-3.1755359172821045
1764634062197049900,7.8750498046875,2.2624382972717285,9.031935691833496,-3.088953971862793
1764634062213777700,7.891777587890625,2.677039384841919,8.954551696777344,-2.9808695316314697
1764634062230533600,7.90853369140625,3.1118483543395996,8.854239463806152,-2.8556883335113525
1764634062247277000,7.925277099609375,3.5338263511657715,8.739787101745605,-2.7137279510498047
1764634062264019000,7.94201904296875,3.9195051193237305,8.626816749572754,-2.5400049686431885
1764634062280774000,7.95877392578125,4.296175956726074,8.504542350769043,-2.3348982334136963
1764634062297516000,7.97551611328125,4.68573522567749,8.35440731048584,-2.117516279220581
1764634062314259500,7.992259521484375,5.081471920013428,8.17127513885498,-1.9091949462890625
1764634062331013000,8.00901318359375,5.465183258056641,7.966858386993408,-1.7020701169967651
1764634062347755800,8.025755859375,5.82668399810791,7.751134872436523,-1.4851852655410767
1764634062364498000,8.042497802734376,6.180292129516602,7.512149810791016,-1.2679588794708252
1764634062381253000,8.059253173828125,6.530818462371826,7.242922306060791,-1.0604703426361084
1764634062397976000,8.07597607421875,6.879011154174805,6.941065788269043,-0.8584473133087158
1764634062414745600,8.09274560546875,7.219277858734131,6.610358715057373,-0.6490646600723267
1764634062431488000,8.109488037109376,7.538583755493164,6.262906074523926,-0.4264622926712036
1764634062448235000,8.126235107421875,7.8271660804748535,5.910980224609375,-0.17858274281024933
1764634062464980700,8.142980712890624,8.08228874206543,5.559159755706787,0.09195127338171005
1764634062481728000,8.15972802734375,8.307584762573242,5.203479766845703,0.37940552830696106
1764634062498473700,8.1764736328125,8.510467529296875,4.834103107452393,0.6629394888877869
1764634062515220500,8.193220458984374,8.69162368774414,4.453070163726807,0.9284152388572693
1764634062531967200,8.20996728515625,8.837844848632812,4.085221767425537,1.199815273284912
1764634062548714000,8.2267138671875,8.944177627563477,3.7429990768432617,1.4925683736801147
1764634062565459700,8.243459716796876,9.017059326171875,3.422199249267578,1.7936835289001465
1764634062582204400,8.260204345703125,9.069795608520508,3.107623815536499,2.0778799057006836
1764634062598966000,8.276966064453125,9.102693557739258,2.8087568283081055,2.3426425457000732
1764634062615696400,8.2936962890625,9.110569953918457,2.5494887828826904,2.5949435234069824
1764634062632445700,8.31044580078125,9.099390983581543,2.322641611099243,2.8359339237213135
1764634062649192400,8.3271923828125,9.077535629272461,2.095916748046875,3.0727157592773438
1764634062665938700,8.343938720703125,9.055829048156738,1.8360280990600586,3.2950072288513184
1764634062682685700,8.360685791015625,9.022684097290039,1.563158392906189,3.5190632343292236
1764634062699431400,8.377431396484376,8.95903491973877,1.3314965963363647,3.768145799636841
1764634062716176400,8.39417626953125,8.854642868041992,1.175020456314087,4.0559515953063965
1764634062732921600,8.410921630859375,8.721759796142578,1.0854685306549072,4.357610702514648
1764634062749671400,8.42767138671875,8.58385944366455,1.0130109786987305,4.639749050140381
1764634062766417400,8.44441748046875,8.459938049316406,0.9170134663581848,4.881049633026123
1764634062783164400,8.461164306640624,8.35661506652832,0.7870792746543884,5.077756404876709
1764634062799910400,8.477910400390625,8.266103744506836,0.6343017220497131,5.24454927444458
1764634062816657700,8.49465771484375,8.18136215209961,0.4733721911907196,5.392341136932373
1764634062833404000,8.51140380859375,8.10012435913086,0.3212977945804596,5.524569034576416
1764634062850134800,8.528134765625,8.02100944519043,0.18933460116386414,5.644791603088379
1764634062866897000,8.54489697265625,7.938883304595947,0.07348722219467163,5.762363433837891
1764634062883643400,8.561643310546875,7.85359001159668,-0.0382022000849247,5.878416061401367
1764634062900389400,8.578389404296875,7.772356986999512,-0.14611577987670898,5.983747959136963
1764634062917134000,8.595134033203125,7.69694185256958,-0.2507157623767853,6.077033519744873
1764634062933879300,8.61187939453125,7.6269211769104,-0.3488273620605469,6.159911155700684
1764634062950629600,8.628629638671875,7.564608573913574,-0.43632566928863525,6.230763912200928
1764634062967375400,8.645375244140626,7.5119733810424805,-0.5128882527351379,6.288347244262695
1764634062984122000,8.6621220703125,7.47036600112915,-0.578722357749939,6.3320465087890625
1764634063000852700,8.678852783203125,7.437938690185547,-0.6366498470306396,6.364578723907471
1764634063017615400,8.695615478515625,7.4128522872924805,-0.6914028525352478,6.388089656829834
1764634063034361300,8.712361328125,7.392387866973877,-0.7452089786529541,6.405730724334717
1764634063051108600,8.729108642578124,7.3711347579956055,-0.8017027378082275,6.423376083374023
1764634063067854800,8.745854736328125,7.34391975402832,-0.8644980192184448,6.446363925933838
1764634063084601600,8.7626015625,7.312191009521484,-0.9284197688102722,6.473485469818115
1764634063101347000,8.77934716796875,7.276009559631348,-0.9838855862617493,6.505979537963867
1764634063118110000,8.79610986328125,7.23302698135376,-1.0285755395889282,6.5468668937683105
1764634063134834700,8.812834716796875,7.183968544006348,-1.064176082611084,6.5950164794921875
1764634063151600400,8.829600341796874,7.129687309265137,-1.0975273847579956,6.64824104309082
1764634063168356900,8.84635693359375,7.0758843421936035,-1.1333950757980347,6.699506759643555
1764634063185092600,8.863092529296875,7.026066780090332,-1.1686784029006958,6.745716571807861
1764634063201824000,8.879823974609375,6.983822345733643,-1.1973732709884644,6.784440517425537
1764634063218570000,8.896570068359376,6.950827121734619,-1.2105660438537598,6.815911293029785
1764634063235319000,8.913319091796875,6.934023857116699,-1.207285761833191,6.833585262298584
1764634063252066000,8.930066162109375,6.942102909088135,-1.1916061639785767,6.8281331062316895
1764634063268811800,8.946811767578126,6.9748125076293945,-1.165818214416504,6.799188613891602
1764634063285555500,8.963555419921875,7.025729656219482,-1.1257826089859009,6.753357887268066
1764634063302308600,8.98030859375,7.0889997482299805,-1.066304087638855,6.696654796600342
1764634063319060700,8.997060791015626,7.167154788970947,-0.9861905574798584,6.625363349914551
1764634063335782400,9.013782470703125,7.264494895935059,-0.8968047499656677,6.531383037567139
1764634063352545300,9.030545166015624,7.382160186767578,-0.8026525974273682,6.410582065582275
1764634063369299200,9.04729931640625,7.510555744171143,-0.7082209587097168,6.27105188369751
1764634063386032000,9.0640322265625,7.637235641479492,-0.6112273335456848,6.126593589782715
1764634063402793700,9.080793701171874,7.748457908630371,-0.5075047016143799,5.994992733001709
1764634063419521000,9.09752099609375,7.839178085327148,-0.3932214677333832,5.8846211433410645
1764634063436276700,9.11427685546875,7.912620544433594,-0.2616213858127594,5.792936325073242
1764634063453024000,9.13102392578125,7.970635890960693,-0.11011652648448944,5.717775344848633
1764634063469754400,9.14775439453125,8.02279281616211,0.054284676909446716,5.645171642303467
1764634063486517000,9.16451708984375,8.078381538391113,0.23365767300128937,5.560689449310303
1764634063503262500,9.181262451171875,8.13374137878418,0.4364391267299652,5.466980934143066
1764634063520007400,9.19800732421875,8.18263053894043,0.670928418636322,5.369405269622803
1764634063536769300,9.214769287109375,8.223769187927246,0.9371827244758606,5.265683174133301
1764634063553515300,9.231515380859374,8.257238388061523,1.2232458591461182,5.153425216674805
1764634063570243000,9.2482431640625,8.291630744934082,1.5221532583236694,5.016773223876953
1764634063587008500,9.265008544921875,8.323261260986328,1.8440300226211548,4.853760242462158
1764634063603750400,9.28175048828125,8.343708038330078,2.1936702728271484,4.669737815856934
1764634063620471000,9.298470947265624,8.361395835876465,2.551119804382324,4.4514007568359375
1764634063637234400,9.315234375,8.382516860961914,2.8990590572357178,4.1910576820373535
1764634063653982000,9.33198193359375,8.392014503479004,3.245537281036377,3.908539295196533
1764634063670727700,9.348727783203126,8.367900848388672,3.6069655418395996,3.633753538131714
1764634063687474700,9.365474609375,8.295130729675293,3.9909114837646484,3.391097068786621
1764634063704220400,9.382220458984374,8.178707122802734,4.388777732849121,3.1754515171051025
1764634063720970000,9.398969970703124,8.039658546447754,4.783662796020508,2.9523844718933105
1764634063737713700,9.415713623046875,7.891838550567627,5.164666652679443,2.6983723640441895
1764634063754461000,9.4324609375,7.7349534034729,5.527604579925537,2.4191298484802246
1764634063771206400,9.449206298828125,7.558570861816406,5.879587173461914,2.1294543743133545
1764634063787953400,9.465953369140625,7.356592655181885,6.223650932312012,1.8392454385757446
1764634063804699600,9.48269970703125,7.1315765380859375,6.553229808807373,1.5594611167907715
1764634063821446400,9.4994462890625,6.876035690307617,6.876471519470215,1.292428731918335
1764634063838192400,9.5161923828125,6.5901408195495605,7.19361686706543,1.0286065340042114
1764634063854939400,9.532939453125,6.29111909866333,7.48821496963501,0.7645726203918457
1764634063871685400,9.549685302734375,5.984288692474365,7.757956027984619,0.4883866608142853
1764634063888432600,9.5664326171875,5.6726484298706055,8.001039505004883,0.20135970413684845
1764634063905175300,9.58317529296875,5.356819152832031,8.217856407165527,-0.08633969724178314
1764634063921922800,9.5999228515625,5.0434184074401855,8.40680980682373,-0.3543696403503418
1764634063938684400,9.616684326171875,4.741866588592529,8.566668510437012,-0.6025105714797974
1764634063955431400,9.633431396484376,4.445213317871094,8.704886436462402,-0.8373560905456543
1764634063972168700,9.650168701171875,4.139130592346191,8.829668045043945,-1.06802237033844
1764634063988906000,9.666906005859374,3.8166844844818115,8.944525718688965,-1.2901493310928345
1764634064005672700,9.683672607421874,3.483704090118408,9.047574043273926,-1.4971106052398682
1764634064022399500,9.7003994140625,3.1469109058380127,9.13754653930664,-1.6847317218780518
1764634064039149600,9.717149658203125,2.8128302097320557,9.213528633117676,-1.8533700704574585
1764634064055897000,9.73389697265625,2.498819589614868,9.274309158325195,-1.994795799255371
1764634064072643000,9.75064306640625,2.1969144344329834,9.325599670410156,-2.1078073978424072
1764634064089390300,9.767390380859375,1.8830487728118896,9.374027252197266,-2.194959878921509
1764634064106133200,9.78413330078125,1.5599278211593628,9.418027877807617,-2.2590932846069336
1764634064122867000,9.800866943359376,1.244400978088379,9.454483985900879,-2.3022470474243164
1764634064139612200,9.817612060546875,0.9597959518432617,9.480141639709473,-2.332772731781006
1764634064156375300,9.834375244140626,0.7127975225448608,9.49591064453125,-2.357064962387085
1764634064173120300,9.851120361328125,0.5066776275634766,9.503924369812012,-2.3779802322387695
1764634064189856000,9.86785595703125,0.336087167263031,9.505427360534668,-2.402087926864624
1764634064206608600,9.884608642578126,0.2013886421918869,9.502269744873047,-2.4294888973236084
1764634064223362000,9.901362060546875,0.09618348628282547,9.496833801269531,-2.4570345878601074
1764634064240098300,9.918098388671876,0.0016109079588204622,9.49050521850586,-2.4832327365875244
1764634064256858000,9.934858154296874,-0.08891832083463669,9.483697891235352,-2.5075294971466064
1764634064273600800,9.951600830078124,-0.16893279552459717,9.4766263961792,-2.5300467014312744
1764634064290336300,9.968336181640625,-0.23460374772548676,9.468238830566406,-2.5560805797576904
1764634064307093800,9.98509375,-0.2970338761806488,9.457518577575684,-2.5890636444091797
1764634064323841300,10.00184130859375,-0.3653486669063568,9.446015357971191,-2.6221065521240234
1764634064340584200,10.018584228515625,-0.43623971939086914,9.435392379760742,-2.649376630783081
1764634064357358300,10.0353583984375,-0.5041361451148987,9.425969123840332,-2.6707773208618164
1764634064374068500,10.052068359375,-0.5619469881057739,9.418270111083984,-2.6863632202148438
1764634064390836200,10.068836181640625,-0.6096985340118408,9.411972999572754,-2.697993755340576
1764634064407556400,10.085556396484375,-0.6496727466583252,9.406632423400879,-2.7072665691375732
1764634064424316700,10.102316650390625,-0.6796923875808716,9.401780128479004,-2.716738700866699
1764634064441066000,10.11906591796875,-0.6964271068572998,9.398358345031738,-2.724332571029663
1764634064457812700,10.135812744140624,-0.7012121677398682,9.396574974060059,-2.729252338409424
1764634064474558700,10.152558837890625,-0.6970881223678589,9.395812034606934,-2.7329282760620117
1764634064491306000,10.169305908203125,-0.678150475025177,9.396807670593262,-2.7342658042907715
1764634064508051700,10.1860517578125,-0.6494473218917847,9.398146629333496,-2.736631155014038
1764634064524814800,10.20281494140625,-0.6232319474220276,9.398941040039062,-2.739999771118164
1764634064541557800,10.219557861328125,-0.6073260307312012,9.3993558883667,-2.7421488761901855
1764634064558286300,10.236286376953124,-0.6037487387657166,9.399763107299805,-2.741544723510742
1764634064575050500,10.253050537109376,-0.6024643778800964,9.400752067565918,-2.7384324073791504
1764634064591794400,10.26979443359375,-0.5912196040153503,9.403425216674805,-2.7316982746124268
1764634064608547600,10.286547607421875,-0.560610294342041,9.40787410736084,-2.7228198051452637
1764634064625274400,10.3032744140625,-0.5103312730789185,9.413236618041992,-2.7141590118408203
1764634064642022400,10.3200224609375,-0.44467344880104065,9.419319152832031,-2.7045888900756836
1764634064658772000,10.33677197265625,-0.3650665283203125,9.426517486572266,-2.6913957595825195
1764634064675517000,10.353516845703124,-0.2640511989593506,9.434953689575195,-2.673584222793579
1764634064692263700,10.370263671875,-0.13706019520759583,9.442876815795898,-2.6550679206848145
1764634064709009700,10.387009765625,0.02009892836213112,9.449865341186523,-2.6335813999176025
1764634064725753000,10.403753173828125,0.19764116406440735,9.454293251037598,-2.6102492809295654
1764634064742506200,10.42050634765625,0.38295114040374756,9.455876350402832,-2.5837748050689697
1764634064759243800,10.437243896484375,0.5677681565284729,9.455527305603027,-2.5508344173431396
1764634064775995600,10.45399560546875,0.7566233277320862,9.453009605407715,-2.5108261108398438
1764634064792740900,10.470740966796875,0.9606095552444458,9.445841789245605,-2.4676778316497803
1764634064809486300,10.487486328125,1.1929975748062134,9.431478500366211,-2.420764684677124
1764634064826239500,10.504239501953125,1.4484635591506958,9.409261703491211,-2.3672492504119873
1764634064842977500,10.5209775390625,1.7152340412139893,9.379729270935059,-2.3053746223449707
1764634064859732200,10.537732177734375,1.9832522869110107,9.343809127807617,-2.235192060470581
1764634064876470800,10.554470703125,2.2472681999206543,9.302045822143555,-2.1582021713256836
1764634064893223700,10.5712236328125,2.511375665664673,9.253583908081055,-2.0737173557281494
1764634064909974800,10.587974853515625,2.801823854446411,9.189655303955078,-1.9839688539505005
1764634064926730500,10.60473046875,3.1256299018859863,9.104216575622559,-1.892033338546753
1764634064943468300,10.62146826171875,3.4597818851470947,9.003315925598145,-1.7906156778335571
1764634064960224500,10.638224609375,3.786879301071167,8.895364761352539,-1.6637729406356812
1764634064976966400,10.65496630859375,4.113876819610596,8.77554988861084,-1.5171879529953003
1764634064993712000,10.671712158203125,4.443118095397949,8.637517929077148,-1.374085783958435
1764634065010456000,10.6884560546875,4.773294448852539,8.477615356445312,-1.2576937675476074
1764634065027195000,10.70519482421875,5.091007232666016,8.304738998413086,-1.1614933013916016
1764634065043939000,10.72193896484375,5.394436836242676,8.125604629516602,-1.0539071559906006
1764634065060686300,10.738686279296875,5.708540916442871,7.924135208129883,-0.9256066679954529
1764634065077428500,10.755428466796875,6.038567066192627,7.691318035125732,-0.7845042943954468
1764634065094183200,10.77218310546875,6.352736473083496,7.449085235595703,-0.6244803071022034
1764634065110925300,10.78892529296875,6.615599155426025,7.231307029724121,-0.42208215594291687
1764634065127672300,10.80567236328125,6.84729528427124,7.0226335525512695,-0.18242962658405304
1764634065144418600,10.82241845703125,7.09357213973999,6.775941371917725,0.06297685205936432
1764634065161150500,10.839150390625,7.37601375579834,6.461624622344971,0.27919724583625793
1764634065177828600,10.85582861328125,7.658931255340576,6.11335563659668,0.45141148567199707
1764634065194658000,10.872657958984375,7.90025520324707,5.783489227294922,0.6110022068023682
1764634065211402800,10.88940283203125,8.093692779541016,5.489803791046143,0.7683162689208984
1764634065228152600,10.906152587890626,8.267104148864746,5.2021918296813965,0.9101034998893738
1764634065244897000,10.92289697265625,8.430082321166992,4.908266067504883,1.038631558418274
1764634065261643800,10.939643798828126,8.582029342651367,4.6071600914001465,1.1657438278198242
1764634065278386400,10.956386474609374,8.719985961914062,4.301045894622803,1.3034417629241943
1764634065295141000,10.97314111328125,8.835907936096191,4.0014543533325195,1.4666969776153564
1764634065311883000,10.989883056640625,8.921487808227539,3.722245216369629,1.669746994972229
1764634065328629200,11.006629150390625,8.991878509521484,3.440809726715088,1.8823035955429077
1764634065345376300,11.023376220703126,9.059340476989746,3.1453983783721924,2.066627025604248
1764634065362139600,11.0401396484375,9.120359420776367,2.8488099575042725,2.2224812507629395
1764634065378881800,11.0568818359375,9.162837982177734,2.5787932872772217,2.372411012649536
1764634065395628800,11.07362890625,9.174972534179688,2.3565073013305664,2.5500707626342773
1764634065412375600,11.09037548828125,9.16049575805664,2.1703100204467773,2.758836030960083
1764634065429122000,11.1071220703125,9.12957763671875,1.9982514381408691,2.9822638034820557
1764634065445863000,11.12386279296875,9.090529441833496,1.8269166946411133,3.203239917755127
1764634065462603300,11.140603271484375,9.04722785949707,1.6609256267547607,3.4095618724823
1764634065479348000,11.157347900390626,8.997673034667969,1.507872462272644,3.6061487197875977
1764634065496095200,11.17409521484375,8.94151496887207,1.3583468198776245,3.8000409603118896
1764634065512837000,11.190837158203125,8.881911277770996,1.1900140047073364,3.9914441108703613
1764634065529591800,11.207591796875,8.826754570007324,1.0089877843856812,4.160104274749756
1764634065546333700,11.224333740234375,8.777848243713379,0.838941752910614,4.299030303955078
1764634065563093500,11.241093505859375,8.735127449035645,0.6966013312339783,4.410034656524658
1764634065579846700,11.2578466796875,8.690479278564453,0.5719916224479675,4.514920711517334
1764634065596582700,11.274582763671875,8.637821197509766,0.4452849328517914,4.628808975219727
1764634065613332700,11.291332763671875,8.574604034423828,0.3077160120010376,4.755795001983643
1764634065630062300,11.308062255859374,8.501437187194824,0.16035756468772888,4.892439842224121
1764634065646825500,11.324825439453125,8.42519760131836,0.005468608811497688,5.025148868560791
1764634065663572500,11.341572509765625,8.350759506225586,-0.15581601858139038,5.1455464363098145
1764634065680318700,11.358318603515626,8.276421546936035,-0.32424652576446533,5.256597518920898
1764634065697049900,11.3750498046875,8.201488494873047,-0.5052677392959595,5.358769416809082
1764634065713798700,11.391798583984375,8.120028495788574,-0.7098661661148071,5.458693981170654
1764634065730546000,11.4085458984375,8.027959823608398,-0.9311790466308594,5.560653209686279
1764634065747292000,11.4252919921875,7.918380260467529,-1.1461684703826904,5.676413059234619
1764634065764038700,11.44203857421875,7.787057876586914,-1.338019847869873,5.814425468444824
1764634065780785000,11.458784912109374,7.634342670440674,-1.5034352540969849,5.974328517913818
1764634065797535200,11.47553515625,7.467968463897705,-1.6451588869094849,6.144836902618408
1764634065814290400,11.49229052734375,7.302168846130371,-1.7816747426986694,6.3039727210998535
1764634065831038000,11.509037841796875,7.167118072509766,-1.9102836847305298,6.420230388641357
1764634065847783200,11.525783203125,7.0688090324401855,-2.0224361419677734,6.494444370269775
1764634065864530400,11.542530517578125,7.000703811645508,-2.116400718688965,6.5381269454956055
1764634065881260500,11.559260498046875,6.951663017272949,-2.1852362155914307,6.567741394042969
1764634065898013400,11.576013427734376,6.913983345031738,-2.2172796726226807,6.596712112426758
1764634065914756600,11.592756591796874,6.8849029541015625,-2.214256763458252,6.628067970275879
1764634065931503900,11.60950390625,6.856323719024658,-2.1995174884796143,6.662511825561523
1764634065948252200,11.626252197265625,6.832821846008301,-2.190373659133911,6.68961238861084
1764634065964996400,11.642996337890626,6.819134712219238,-2.1933810710906982,6.702580451965332
1764634065981758700,11.6597587890625,6.813114643096924,-2.208573818206787,6.703714847564697
1764634065998475500,11.6764755859375,6.8077545166015625,-2.229989528656006,6.702070236206055
1764634066015248100,11.693248046875,6.7948126792907715,-2.251645565032959,6.707958698272705
1764634066031996000,11.709995849609374,6.769720077514648,-2.2731149196624756,6.726065158843994
1764634066048741000,11.7267412109375,6.733067989349365,-2.296772003173828,6.754757404327393
1764634066065488600,11.743488525390624,6.694919109344482,-2.326559066772461,6.782425403594971
1764634066082218000,11.760218017578126,6.678443908691406,-2.3718061447143555,6.78299617767334
1764634066098952000,11.776951904296874,6.697551727294922,-2.432363510131836,6.742589950561523
1764634066115714300,11.79371435546875,6.733068466186523,-2.485508918762207,6.687611103057861
1764634066132461600,11.810461669921875,6.755570888519287,-2.5127015113830566,6.654675483703613
1764634066149192000,11.82719189453125,6.757456302642822,-2.515488624572754,6.651708602905273
1764634066165954300,11.843954345703125,6.7550435066223145,-2.510342597961426,6.656101226806641
1764634066182700500,11.860700439453124,6.758700847625732,-2.5054051876068115,6.654248237609863
1764634066199424800,11.8774248046875,6.763336658477783,-2.4991953372955322,6.651873588562012
1764634066216193300,11.894193359375,6.766396999359131,-2.4947404861450195,6.650432586669922
1764634066232940500,11.9109404296875,6.769097805023193,-2.495936632156372,6.647233963012695
1764634066249686300,11.927686279296875,6.772715091705322,-2.5054097175598145,6.6399827003479
1764634066266433500,11.94443359375,6.773164749145508,-2.5213522911071777,6.633485794067383
1764634066283179500,11.961179443359375,6.7689714431762695,-2.537813425064087,6.631488800048828
1764634066299923700,11.977923828125,6.7636566162109375,-2.5530622005462646,6.631058692932129
1764634066316685600,11.994685546875,6.760448932647705,-2.56785249710083,6.628619194030762
1764634066333432800,12.011432861328124,6.758788108825684,-2.5812785625457764,6.625095367431641
1764634066350160400,12.028160400390625,6.75639533996582,-2.592461347579956,6.623169898986816
1764634066366924800,12.0449248046875,6.752655506134033,-2.5968613624572754,6.6252593994140625
1764634066383671600,12.061671630859376,6.749451637268066,-2.5875000953674316,6.63218355178833
1764634066400417800,12.078417724609375,6.7469000816345215,-2.564605236053467,6.6436614990234375
1764634066417163500,12.09516357421875,6.744139671325684,-2.522777795791626,6.662453651428223
1764634066433896400,12.111896484375,6.741560935974121,-2.4500699043273926,6.692131519317627
1764634066450654700,12.12865478515625,6.740586757659912,-2.349924325942993,6.728927135467529
1764634066467404300,12.145404296875,6.764775276184082,-2.2388198375701904,6.742522716522217
1764634066484149500,12.1621494140625,6.825741767883301,-2.131333827972412,6.715860843658447
1764634066500889900,12.178889892578125,6.918082237243652,-2.031108856201172,6.6521315574646
1764634066517643300,12.195643310546876,7.030566692352295,-1.9192664623260498,6.566860675811768
1764634066534389500,12.212389404296875,7.147156238555908,-1.7753242254257202,6.48093318939209
1764634066551117300,12.229117431640624,7.261458396911621,-1.593106746673584,6.400730133056641
1764634066567882500,12.245882568359375,7.371005058288574,-1.3820812702178955,6.324100971221924
1764634066584629200,12.262629150390625,7.48187780380249,-1.1500790119171143,6.239786148071289
1764634066601359600,12.279359619140624,7.604789733886719,-0.8977663516998291,6.131663799285889
1764634066618109000,12.29610888671875,7.741138458251953,-0.621882975101471,5.993675708770752
1764634066634856000,12.31285595703125,7.8683061599731445,-0.32422491908073425,5.849850654602051
1764634066651602000,12.329601806640625,7.9602861404418945,-0.005706298165023327,5.733229160308838
1764634066668349400,12.346349365234374,8.014771461486816,0.3515051007270813,5.645883560180664
1764634066685095000,12.363094970703125,8.053439140319824,0.7440751791000366,5.551990032196045
1764634066701835300,12.379835205078125,8.107686042785645,1.1488395929336548,5.402009010314941
1764634066718588200,12.396588134765626,8.18253231048584,1.5560271739959717,5.182766437530518
1764634066735334400,12.41333447265625,8.255002975463867,1.9683971405029297,4.921020984649658
1764634066752081200,12.4300810546875,8.296878814697266,2.3926401138305664,4.6554460525512695
1764634066768827600,12.44682763671875,8.297731399536133,2.833918333053589,4.399166107177734
1764634066785563600,12.463563720703124,8.252593040466309,3.297329902648926,4.15432596206665
1764634066802322200,12.480322265625,8.164372444152832,3.7812232971191406,3.909153938293457
1764634066819067100,12.497067138671875,8.047866821289062,4.259966850280762,3.649744749069214
1764634066835814700,12.513814697265625,7.922298908233643,4.71635627746582,3.3510117530822754
1764634066852545300,12.530545166015624,7.796182632446289,5.1454010009765625,2.996748685836792
1764634066869307100,12.54730712890625,7.649162769317627,5.558718204498291,2.6128664016723633
1764634066886052600,12.564052490234374,7.456076145172119,5.969391822814941,2.2381701469421387
1764634066902797300,12.58079736328125,7.211994171142578,6.373543739318848,1.8976801633834839
1764634066919539700,12.597539794921875,6.934173107147217,6.75911283493042,1.5709075927734375
1764634066936306200,12.61430615234375,6.636125087738037,7.115281581878662,1.2532840967178345
1764634066953021700,12.631021728515625,6.324865818023682,7.438602447509766,0.9483584761619568
1764634066969781500,12.647781494140625,6.003823280334473,7.7312211990356445,0.6468722224235535
1764634066986516500,12.6645166015625,5.6771087646484375,7.992605209350586,0.3532779812812805
1764634067003278600,12.681278564453125,5.343417644500732,8.226640701293945,0.07991097867488861
1764634067020014300,12.698014404296876,5.003221035003662,8.436704635620117,-0.16093496978282928
1764634067036771600,12.714771484375,4.6536970138549805,8.628005981445312,-0.36977529525756836
1764634067053522000,12.73152197265625,4.309112548828125,8.796268463134766,-0.5415919423103333
1764634067070278000,12.74827783203125,3.974247455596924,8.942489624023438,-0.6880080103874207
1764634067087023400,12.7650234375,3.652059316635132,9.068204879760742,-0.816232442855835
1764634067103770400,12.781770263671875,3.3353657722473145,9.178365707397461,-0.9322307109832764
1764634067120506400,12.79850634765625,3.0169687271118164,9.276676177978516,-1.0379270315170288
1764634067137263600,12.815263671875,2.6882240772247314,9.365720748901367,-1.1370364427566528
1764634067153991000,12.831990966796875,2.3559672832489014,9.443138122558594,-1.229910969734192
1764634067170740500,12.848740478515625,2.0290961265563965,9.507046699523926,-1.3171753883361816
1764634067187492400,12.865492431640625,1.7066985368728638,9.558454513549805,-1.399726152420044
1764634067204236500,12.882236572265626,1.397745966911316,9.597545623779297,-1.4729409217834473
1764634067220980700,12.898980712890625,1.1210001707077026,9.624482154846191,-1.5325833559036255
1764634067237715700,12.9157158203125,0.8819209337234497,9.641636848449707,-1.5802416801452637
1764634067254475300,12.932475341796875,0.6797987818717957,9.652287483215332,-1.6147253513336182
1764634067271221200,12.94922119140625,0.5029345154762268,9.659480094909668,-1.6363544464111328
1764634067287979800,12.965979736328125,0.34125813841819763,9.664649963378906,-1.6474848985671997
1764634067304710000,12.9827099609375,0.19494764506816864,9.668428421020508,-1.6491178274154663
1764634067321461000,12.9994609375,0.06044705584645271,9.671771049499512,-1.6399116516113281
1764634067338190800,13.01619091796875,-0.06327740103006363,9.67485523223877,-1.6215083599090576
1764634067354962000,13.0329619140625,-0.1715821623802185,9.677597999572754,-1.5971120595932007
1764634067371699500,13.049699462890626,-0.2511543035507202,9.680388450622559,-1.5694342851638794
1764634067388449300,13.06644921875,-0.2909744083881378,9.683130264282227,-1.54547119140625
1764634067405194200,13.0831943359375,-0.30034253001213074,9.685708045959473,-1.5274044275283813
1764634067421937000,13.09993701171875,-0.29579925537109375,9.687535285949707,-1.5166596174240112
1764634067438690600,13.116690673828124,-0.2891164720058441,9.687785148620605,-1.516360878944397
1764634067455450000,13.1334501953125,-0.28599172830581665,9.687320709228516,-1.5199171304702759
1764634067472191200,13.150191162109374,-0.2790893614292145,9.6870698928833,-1.5227928161621094
1764634067488921900,13.166921875,-0.26122787594795227,9.68681812286377,-1.5275506973266602
1764634067505684200,13.183684326171875,-0.23721803724765778,9.687006950378418,-1.5302757024765015
1764634067522402600,13.200402587890625,-0.2167472243309021,9.687531471252441,-1.5300047397613525
1764634067539183600,13.21718359375,-0.20699816942214966,9.687668800354004,-1.530466914176941
1764634067555925000,13.233925048828125,-0.20898330211639404,9.686580657958984,-1.5370821952819824
1764634067572675800,13.25067578125,-0.21302781999111176,9.684514045715332,-1.5494849681854248
1764634067589415200,13.267415283203125,-0.20722270011901855,9.682181358337402,-1.5647790431976318
1764634067606164700,13.284164794921875,-0.1801983267068863,9.680062294006348,-1.58115553855896
1764634067622888200,13.30088818359375,-0.12422380596399307,9.678695678710938,-1.5948526859283447
1764634067639647000,13.31764697265625,-0.05063922703266144,9.67745590209961,-1.6063659191131592
1764634067656391400,13.334391357421875,0.025674832984805107,9.676156044006348,-1.6147639751434326
1764634067673138000,13.351137939453125,0.1012936607003212,9.675261497497559,-1.6171530485153198
1764634067689869000,13.367869140625,0.17881633341312408,9.674490928649902,-1.6150431632995605
1764634067706631700,13.384631591796875,0.25886091589927673,9.673211097717285,-1.6118649244308472
1764634067723377200,13.401377197265624,0.3401644229888916,9.67113971710205,-1.6091742515563965
1764634067740124200,13.418124267578126,0.42554137110710144,9.668304443359375,-1.6058937311172485
1764634067756864500,13.434864501953125,0.5237056016921997,9.664053916931152,-1.6024748086929321
1764634067773626000,13.451626220703124,0.6445044279098511,9.657024383544922,-1.6008259057998657
1764634067790376700,13.468376708984374,0.7854290008544922,9.64661693572998,-1.600626826286316
1764634067807123500,13.48512353515625,0.9381551146507263,9.633155822753906,-1.5994606018066406
1764634067823864000,13.501864013671875,1.0918225049972534,9.617715835571289,-1.5948591232299805
1764634067840604700,13.518604736328125,1.249974250793457,9.599953651428223,-1.5857404470443726
1764634067857349400,13.535349365234374,1.4303196668624878,9.57724380493164,-1.5705797672271729
1764634067874096000,13.55209619140625,1.6499896049499512,9.545201301574707,-1.550089955329895
1764634067890842400,13.56884228515625,1.9158076047897339,9.499703407287598,-1.5236245393753052
1764634067907586800,13.5855869140625,2.2096505165100098,9.439867973327637,-1.497493028640747
1764634067924337700,13.602337646484376,2.501471996307373,9.370813369750977,-1.4719421863555908
1764634067941088300,13.619088134765626,2.769484758377075,9.299509048461914,-1.44403076171875
1764634067957841400,13.63584130859375,3.0251119136810303,9.22475528717041,-1.4102119207382202
1764634067974584000,13.652583984375,3.2873375415802,9.142207145690918,-1.3599928617477417
1764634067991338200,13.669338134765624,3.5713443756103516,9.046772956848145,-1.2796591520309448
1764634068008078800,13.686078857421874,3.863597869873047,8.94228744506836,-1.1594035625457764
1764634068024827000,13.702826904296876,4.150380611419678,8.82347583770752,-1.075516700744629
1764634068041553200,13.71955322265625,4.427745342254639,8.690739631652832,-1.049879550933838
1764634068058312000,13.73631201171875,4.696079730987549,8.550158500671387,-1.038133978843689
1764634068075041300,13.753041259765626,4.989636421203613,8.385940551757812,-1.0077968835830688
1764634068091800000,13.769800048828126,5.3452558517456055,8.172210693359375,-0.9377247095108032
1764634068108545300,13.786545166015625,5.761386871337891,7.8971123695373535,-0.8234987854957581
1764634068125294600,13.803294677734375,6.208729267120361,7.562994956970215,-0.6992065906524658
1764634068142039800,13.820039794921875,6.6434326171875,7.193958282470703,-0.5898113250732422
1764634068158786300,13.836786376953125,7.031346321105957,6.824167728424072,-0.476461261510849
1764634068175533000,13.853532958984376,7.3787126541137695,6.455653667449951,-0.33947473764419556
1764634068192278000,13.870278076171875,7.699054718017578,6.076303482055664,-0.19799521565437317
1764634068209027000,13.887027099609375,7.993895530700684,5.6860456466674805,-0.05134820193052292
1764634068225757200,13.903757080078124,8.252448081970215,5.302898406982422,0.11172685027122498
1764634068242522600,13.920522705078126,8.4769926071167,4.928162574768066,0.29987460374832153
1764634068259261200,13.93726123046875,8.672703742980957,4.5569047927856445,0.5049130916595459
1764634068276032300,13.9540322265625,8.840760231018066,4.1899895668029785,0.72184157371521
1764634068292771000,13.97077099609375,8.979971885681152,3.8367743492126465,0.9356169700622559
1764634068309518300,13.987518310546875,9.080060958862305,3.5296969413757324,1.1531908512115479
1764634068326263800,14.004263916015624,9.143180847167969,3.26863169670105,1.3979970216751099
1764634068343011000,14.021010986328125,9.190973281860352,3.0099010467529297,1.6439648866653442
1764634068359757300,14.03775732421875,9.23607063293457,2.7352774143218994,1.857244849205017
1764634068376503600,14.054503662109376,9.274271011352539,2.4641711711883545,2.0376107692718506
1764634068393250300,14.071250244140625,9.298115730285645,2.2158541679382324,2.2070653438568115
1764634068409978400,14.087978271484374,9.306388854980469,2.008819580078125,2.3647146224975586
1764634068426742500,14.104742431640625,9.299661636352539,1.8420097827911377,2.5217843055725098
1764634068443495000,14.121494873046874,9.285078048706055,1.6883604526519775,2.6782214641571045
1764634068460231200,14.138231201171875,9.273370742797852,1.5269486904144287,2.812319755554199
1764634068476981200,14.154981201171875,9.265850067138672,1.3627983331680298,2.919401168823242
1764634068493722600,14.17172265625,9.2581787109375,1.2030853033065796,3.012444019317627
1764634068510482400,14.188482421875,9.24752426147461,1.0480703115463257,3.1017656326293945
1764634068527218700,14.20521875,9.231766700744629,0.9042636752128601,3.192634344100952
1764634068543964200,14.221964111328125,9.21219253540039,0.7808434963226318,3.2805333137512207
1764634068560720000,14.238719970703125,9.187204360961914,0.6821700930595398,3.3713529109954834
1764634068577452300,14.255452392578125,9.153853416442871,0.6016077399253845,3.4757933616638184
1764634068594204200,14.2722041015625,9.104433059692383,0.5176345705986023,3.6162784099578857
1764634068610942700,14.288942626953125,9.039580345153809,0.4140249788761139,3.78822922706604
1764634068627674600,14.305674560546874,8.971975326538086,0.2900318503379822,3.956723213195801
1764634068644434700,14.3224345703125,8.908651351928711,0.14922869205474854,4.104846000671387
1764634068661181000,14.339180908203126,8.845409393310547,-0.00693903723731637,4.242026329040527
1764634068677905000,14.35590478515625,8.775965690612793,-0.1656000316143036,4.380767345428467
1764634068694677800,14.372677734375,8.689172744750977,-0.3240598738193512,4.541956901550293
1764634068711421000,14.3894208984375,8.580925941467285,-0.4812527596950531,4.729928493499756
1764634068728151600,14.406151611328125,8.45759105682373,-0.6303646564483643,4.930304527282715
1764634068744910000,14.42291015625,8.326834678649902,-0.7741310596466064,5.128417015075684
1764634068761666800,14.439666748046875,8.19958209991455,-0.9102268815040588,5.307961463928223
1764634068778401000,14.456401123046875,8.078532218933105,-1.0346651077270508,5.468354225158691
1764634068795165400,14.47316552734375,7.959395408630371,-1.138352632522583,5.620347023010254
1764634068811908900,14.489908935546875,7.834129333496094,-1.207952618598938,5.779565811157227
1764634068828644900,14.506644775390624,7.693158149719238,-1.2522497177124023,5.956785678863525
1764634068845407700,14.52340771484375,7.5442423820495605,-1.290103554725647,6.136460781097412
1764634068862150000,14.54014990234375,7.407521724700928,-1.3314093351364136,6.292223930358887
1764634068878897200,14.556897216796875,7.296712875366211,-1.3789641857147217,6.4103474617004395
1764634068895649300,14.573649169921875,7.219935417175293,-1.4273147583007812,6.486248016357422
1764634068912392000,14.590391845703126,7.1707258224487305,-1.4719605445861816,6.530707359313965
1764634068929118700,14.60711865234375,7.137997150421143,-1.515120029449463,6.556639194488525
1764634068945880000,14.623880126953125,7.109851837158203,-1.5588682889938354,6.576932430267334
1764634068962635500,14.640635498046874,7.078153610229492,-1.5987271070480347,6.601509094238281
1764634068979377200,14.657377197265625,7.03678560256958,-1.6317152976989746,6.637564182281494
1764634068996123400,14.674123291015626,6.985438346862793,-1.665382742881775,6.683281898498535
1764634069012866300,14.6908662109375,6.93055534362793,-1.7059524059295654,6.730024814605713
1764634069029621000,14.70762109375,6.873232841491699,-1.7507505416870117,6.77714204788208
1764634069046363600,14.72436376953125,6.8152570724487305,-1.79924738407135,6.822836875915527
1764634069063105000,14.74110498046875,6.763333320617676,-1.8505589962005615,6.860675811767578
1764634069079855600,14.757855712890626,6.718639850616455,-1.8970659971237183,6.891817092895508
1764634069096591600,14.774591552734375,6.674980640411377,-1.9277812242507935,6.925632953643799
1764634069113342700,14.7913427734375,6.628691673278809,-1.9406781196594238,6.966371059417725
1764634069130083600,14.80808349609375,6.582997798919678,-1.9387613534927368,7.010096073150635
1764634069146821400,14.8248212890625,6.541380882263184,-1.9297502040863037,7.051419734954834
1764634069163581400,14.84158154296875,6.504951000213623,-1.9237027168273926,7.086684226989746
1764634069180322300,14.858322265625,6.479994773864746,-1.9277039766311646,7.108426570892334
1764634069197068300,14.875068359375,6.471705436706543,-1.9422568082809448,7.112016677856445
1764634069213812500,14.8918125,6.47528076171875,-1.9600025415420532,7.103888988494873
1764634069230564400,14.908564453125,6.478452205657959,-1.9749559164047241,7.0968523025512695
1764634069247308300,14.925308349609375,6.469583988189697,-1.9880908727645874,7.101274013519287
1764634069264070100,14.942070068359374,6.444596290588379,-2.000338315963745,7.120529651641846
1764634069280798000,14.9587978515625,6.410532474517822,-2.0088443756103516,7.148826599121094
1764634069297547300,14.97554736328125,6.373262405395508,-2.0164296627044678,7.179947376251221
1764634069314294300,14.992294189453125,6.3355560302734375,-2.030122756958008,7.209399700164795
1764634069331040500,15.00904052734375,6.299304008483887,-2.0524137020111084,7.234809398651123
1764634069347787300,15.025787353515625,6.26665735244751,-2.0795278549194336,7.255390167236328
1764634069364533500,15.042533447265624,6.22959041595459,-2.1077616214752197,7.279125213623047
1764634069381296400,15.05929638671875,6.1794962882995605,-2.1435203552246094,7.311310291290283
1764634069398038500,15.07603857421875,6.126288890838623,-2.1972310543060303,7.340085983276367
1764634069414786600,15.09278662109375,6.105409622192383,-2.2661385536193848,7.3365325927734375
1764634069431532000,15.109531982421874,6.129594326019287,-2.33174204826355,7.295695781707764
1764634069448278800,15.12627880859375,6.1610493659973145,-2.3723413944244385,7.256003379821777
1764634069465025500,15.143025634765625,6.162571907043457,-2.3788719177246094,7.252570629119873
1764634069481756000,15.159755859375,6.1383819580078125,-2.349106788635254,7.282723903656006
1764634069498505200,15.176505126953124,6.098590850830078,-2.2736284732818604,7.3398847579956055
1764634069515252200,15.193252197265625,6.068904876708984,-2.146963596343994,7.402367115020752
1764634069531998200,15.209998291015625,6.099997520446777,-1.9818878173828125,7.422820568084717
1764634069548745200,15.2267451171875,6.2086944580078125,-1.805100440979004,7.377657890319824
1764634069565491000,15.243490966796875,6.377427577972412,-1.625162959098816,7.274845123291016
1764634069582238200,15.26023828125,6.574517726898193,-1.4261760711669922,7.139876842498779
1764634069598984000,15.27698388671875,6.771152973175049,-1.1977802515029907,6.996636390686035
1764634069615731000,15.29373095703125,6.95629358291626,-0.9399619102478027,6.852924346923828
1764634069632477000,15.310476806640626,7.130019187927246,-0.6552740931510925,6.705935001373291
1764634069649224200,15.32722412109375,7.295334339141846,-0.35333994030952454,6.548996448516846
1764634069665970000,15.343969970703125,7.449486255645752,-0.04354538768529892,6.382739543914795
1764634069682717000,15.360717041015626,7.588115215301514,0.2831648886203766,6.21099328994751
1764634069699455000,15.377455078125,7.708010673522949,0.6285935640335083,6.035524368286133
1764634069716210000,15.3942099609375,7.803885459899902,0.9794563055038452,5.863117218017578
1764634069732956000,15.410955810546875,7.873322010040283,1.3403725624084473,5.6965179443359375
1764634069749688000,15.42768798828125,7.914672374725342,1.7252063751220703,5.533329010009766
1764634069766467600,15.444467529296874,7.9309892654418945,2.126521587371826,5.367814540863037
1764634069783209000,15.461208984375,7.932779788970947,2.525115728378296,5.189499855041504
1764634069799954700,15.47795458984375,7.926859378814697,2.9103050231933594,4.993108749389648
1764634069816683800,15.494683837890625,7.911487579345703,3.2866809368133545,4.779350757598877
1764634069833416200,15.511416259765625,7.871530055999756,3.672236680984497,4.55958366394043
1764634069850179800,15.528179931640626,7.806273937225342,4.066211223602295,4.331757545471191
1764634069866930400,15.544930419921876,7.722992420196533,4.45521879196167,4.091763496398926
1764634069883675400,15.56167529296875,7.614435195922852,4.840109348297119,3.8509504795074463
1764634069900419300,15.57841943359375,7.475533485412598,5.226176738739014,3.611037254333496
1764634069917169400,15.59516943359375,7.305856704711914,5.616501331329346,3.3638486862182617
1764634069933930200,15.61193017578125,7.106074810028076,6.00614595413208,3.109023094177246
1764634069950671000,15.628671142578124,6.878214359283447,6.384651184082031,2.857010841369629
1764634069967422500,15.64542236328125,6.619409561157227,6.753572463989258,2.609365701675415
1764634069984166400,15.66216650390625,6.337140083312988,7.105434894561768,2.3642234802246094
1764634070000912400,15.678912353515624,6.044323921203613,7.432562828063965,2.111698865890503
1764634070017659600,15.69565966796875,5.745778560638428,7.733059883117676,1.849845051765442
1764634070034405600,15.712405517578125,5.4398193359375,8.009943008422852,1.5764845609664917
1764634070051122400,15.729122314453125,5.121304035186768,8.265120506286621,1.3023568391799927
1764634070067887400,15.745887451171875,4.783671855926514,8.500476837158203,1.0461809635162354
1764634070084633000,15.762633056640626,4.430476188659668,8.715469360351562,0.804731011390686
1764634070101378800,15.77937890625,4.062094211578369,8.911327362060547,0.568983793258667
1764634070118125800,15.796125732421874,3.6846556663513184,9.085238456726074,0.34332892298698425
1764634070134872000,15.8128720703125,3.303795337677002,9.235898971557617,0.13868601620197296
1764634070151619000,15.829619140625,2.923035144805908,9.364313125610352,-0.04045981168746948
1764634070168365000,15.846364990234376,2.5298032760620117,9.475944519042969,-0.20658856630325317
1764634070185111800,15.86311181640625,2.1298861503601074,9.569170951843262,-0.3614371716976166
1764634070201857800,15.87985791015625,1.747642159461975,9.640363693237305,-0.49524369835853577
1764634070218605000,15.89660498046875,1.402922511100769,9.690104484558105,-0.6081306338310242
1764634070235351000,15.91335107421875,1.092132806777954,9.723403930664062,-0.7062395811080933
1764634070252113700,15.93011376953125,0.8144057989120483,9.744447708129883,-0.7865236401557922
1764634070268857000,15.946857177734374,0.5662297606468201,9.75649356842041,-0.8522595167160034
1764634070285599700,15.963599853515625,0.3390394151210785,9.762024879455566,-0.9077516198158264
1764634070302337800,15.980337890625,0.1284925639629364,9.762564659118652,-0.9549374580383301
1764634070319084300,15.997084228515625,-0.052924904972314835,9.759601593017578,-0.9917211532592773
1764634070335829800,16.013829833984374,-0.2008395940065384,9.754738807678223,-1.0202090740203857
1764634070352576500,16.030576416015624,-0.32582733035087585,9.748941421508789,-1.043115496635437
1764634070369323000,16.047322998046877,-0.4385721683502197,9.742337226867676,-1.0633158683776855
1764634070386069800,16.06406982421875,-0.5452675223350525,9.735014915466309,-1.0808709859848022
1764634070402831400,16.080831298828127,-0.642679750919342,9.727232933044434,-1.0972832441329956
1764634070419599000,16.09759912109375,-0.7272720336914062,9.719632148742676,-1.1117480993270874
1764634070436321800,16.11432177734375,-0.7973456382751465,9.712971687316895,-1.1218451261520386
1764634070453068300,16.131068359375,-0.8493034243583679,9.708052635192871,-1.1262799501419067
1764634070469796400,16.14779638671875,-0.877418041229248,9.705829620361328,-1.1238962411880493
1764634070486549800,16.1645498046875,-0.8867051601409912,9.705242156982422,-1.1216799020767212
1764634070503304400,16.181304443359377,-0.8825705647468567,9.705719947814941,-1.1207916736602783
1764634070520055000,16.198054931640623,-0.8725700974464417,9.706480026245117,-1.1220582723617554
1764634070536765200,16.21476513671875,-0.8586964011192322,9.707725524902344,-1.1219687461853027
1764634070553519400,16.231519287109375,-0.8389438986778259,9.709915161132812,-1.1179523468017578
1764634070570269000,16.24826904296875,-0.8102627396583557,9.71313762664795,-1.1111172437667847
1764634070587027700,16.26502783203125,-0.7670968174934387,9.717411041259766,-1.1043739318847656
1764634070603774000,16.28177392578125,-0.7063968777656555,9.722716331481934,-1.0981380939483643
1764634070620520700,16.298520751953124,-0.6272659301757812,9.729146003723145,-1.0892152786254883
1764634070637251000,16.3152509765625,-0.5410621762275696,9.735430717468262,-1.079253911972046
1764634070654013700,16.332013671875,-0.4592730700969696,9.740967750549316,-1.0671148300170898
1764634070670760000,16.348760009765623,-0.38274648785591125,9.74571704864502,-1.0538510084152222
1764634070687506700,16.365506591796876,-0.3037880063056946,9.749813079833984,-1.041617751121521
1764634070704252400,16.38225244140625,-0.20590269565582275,9.753731727600098,-1.0288184881210327
1764634070720994600,16.39899462890625,-0.07646463066339493,9.757555961608887,-1.0101202726364136
1764634070737749000,16.4157490234375,0.07714115083217621,9.76026439666748,-0.9835745096206665
1764634070754489300,16.4324892578125,0.23308230936527252,9.760926246643066,-0.9519004225730896
1764634070771238400,16.44923828125,0.37739452719688416,9.759806632995605,-0.9164309501647949
1764634070787982000,16.465982177734375,0.514943540096283,9.756828308105469,-0.8804828524589539
1764634070804731600,16.482731689453125,0.6620635986328125,9.750494003295898,-0.8518627882003784
1764634070821478700,16.499478759765626,0.8409512639045715,9.737920761108398,-0.8377513885498047
1764634070838224400,16.516224365234375,1.073492407798767,9.715338706970215,-0.8342272639274597
1764634070854956000,16.5329560546875,1.3691112995147705,9.678470611572266,-0.8299792408943176
1764634070871718000,16.5497177734375,1.7071508169174194,9.62543773651123,-0.820172905921936
1764634070888464400,16.56646435546875,2.0541744232177734,9.55923843383789,-0.7984071969985962
1764634070905210400,16.58321044921875,2.3843905925750732,9.485610961914062,-0.7576181888580322
1764634070921975600,16.5999755859375,2.696528911590576,9.406108856201172,-0.6999734044075012
1764634070938716700,16.616716552734374,3.015101432800293,9.313518524169922,-0.6353435516357422
1764634070955463200,16.633463134765623,3.354727268218994,9.200927734375,-0.5699602961540222
1764634070972209200,16.650209228515624,3.7096691131591797,9.067683219909668,-0.5015922784805298
1764634070988938200,16.666938232421874,4.066007614135742,8.917397499084473,-0.4286436140537262
1764634071005696300,16.6836962890625,4.426401138305664,8.747345924377441,-0.35640594363212585
1764634071022439200,16.700439208984374,4.777971267700195,8.562775611877441,-0.2932066023349762
1764634071039160600,16.71716064453125,5.098836421966553,8.378120422363281,-0.21230100095272064
1764634071055921000,16.7339208984375,5.399704933166504,8.18974781036377,-0.08562780171632767
1764634071072674600,16.750674560546877,5.700533866882324,7.983372211456299,0.0761319175362587
1764634071089423600,16.767423583984375,6.012888431549072,7.747552394866943,0.2381635308265686
1764634071106148600,16.784148681640627,6.321516990661621,7.491174697875977,0.39602696895599365
1764634071122915300,16.800915283203125,6.609063148498535,7.229485988616943,0.539373517036438
1764634071139661600,16.81766162109375,6.890321731567383,6.952915668487549,0.6454031467437744
1764634071156403700,16.83440380859375,7.184164047241211,6.641750335693359,0.7148742079734802
1764634071173154800,16.85115478515625,7.478470325469971,6.299124240875244,0.7934827208518982
1764634071189888000,16.867887939453126,7.73969841003418,5.958448886871338,0.9110846519470215
1764634071206645800,16.884645751953126,7.946025371551514,5.6474151611328125,1.097037672996521
1764634071223394000,16.90139404296875,8.117355346679688,5.347984313964844,1.3204947710037231
1764634071240140500,16.918140625,8.284858703613281,5.02626895904541,1.5276918411254883
1764634071256869000,16.934869140625,8.442261695861816,4.696233749389648,1.7057873010635376
1764634071273649200,16.951649169921875,8.568304061889648,4.383635997772217,1.8984217643737793
1764634071290375200,16.968375244140624,8.653157234191895,4.098989963531494,2.134774684906006
1764634071307139000,16.98513916015625,8.705825805664062,3.8224570751190186,2.415266752243042
1764634071323886300,17.00188623046875,8.755264282226562,3.510343551635742,2.6942429542541504
1764634071340632000,17.018632080078124,8.800137519836426,3.1793222427368164,2.9471359252929688
1764634071357382400,17.03538232421875,8.818516731262207,2.8699400424957275,3.198955774307251
1764634071374109200,17.052109130859375,8.795073509216309,2.602360486984253,3.480015516281128
1764634071390859500,17.068859619140625,8.742111206054688,2.3332581520080566,3.7904491424560547
1764634071407609000,17.085609130859375,8.68698787689209,2.0232696533203125,4.083959102630615
1764634071424352000,17.10235205078125,8.639741897583008,1.686355471611023,4.329801559448242
1764634071441098500,17.119098388671876,8.592330932617188,1.3668546676635742,4.532071590423584
1764634071457845000,17.135844970703126,8.540541648864746,1.099285364151001,4.699661731719971
1764634071474603300,17.152603271484374,8.477514266967773,0.8805258274078369,4.857213973999023
1764634071491356200,17.169356201171876,8.40312671661377,0.6822792887687683,5.015780925750732
1764634071508081400,17.186081298828125,8.318503379821777,0.4894581735134125,5.176778316497803
1764634071524825000,17.2028251953125,8.226438522338867,0.2934857904911041,5.336260795593262
1764634071541574100,17.21957421875,8.127241134643555,0.06476932018995285,5.493621349334717
1764634071558327300,17.236327392578126,8.04090404510498,-0.20562787353992462,5.615843772888184
1764634071575054300,17.253054443359375,7.977919578552246,-0.4698813855648041,5.689298152923584
1764634071591817500,17.2698173828125,7.9280266761779785,-0.6936971545219421,5.735964298248291
1764634071608563000,17.28656298828125,7.87310266494751,-0.8815851807594299,5.785600185394287
1764634071625322800,17.30332275390625,7.798129081726074,-1.0430656671524048,5.859805107116699
1764634071642046500,17.32004638671875,7.694568157196045,-1.2024422883987427,5.965221405029297
1764634071658803000,17.336802978515625,7.572276592254639,-1.375264286994934,6.08320426940918
1764634071675549400,17.353549560546874,7.452297687530518,-1.5352208614349365,6.192129135131836
1764634071692285400,17.370285400390625,7.34939432144165,-1.658597707748413,6.282639503479004
1764634071709044500,17.38704443359375,7.268187999725342,-1.7453546524047852,6.353211879730225
1764634071725772800,17.403772705078126,7.199325084686279,-1.8110036849975586,6.412962913513184
1764634071742552800,17.420552734375,7.128027439117432,-1.8703649044036865,6.475265979766846
1764634071759286800,17.437286865234373,7.0374979972839355,-1.927569031715393,6.556997299194336
1764634071776049000,17.454048828125,6.918656349182129,-1.9772473573684692,6.66774320602417
1764634071792774700,17.470774658203126,6.782787322998047,-2.0082643032073975,6.796821117401123
1764634071809533700,17.48753369140625,6.6524529457092285,-2.0201776027679443,6.92097282409668
1764634071826281500,17.504281494140624,6.53422212600708,-2.0291526317596436,7.030120372772217
1764634071843026700,17.521026611328125,6.420526504516602,-2.0481252670288086,7.128683090209961
1764634071859772400,17.5377724609375,6.309471607208252,-2.075183868408203,7.219438552856445
1764634071876520200,17.554520263671876,6.2054033279418945,-2.104440689086914,7.300713539123535
1764634071893264100,17.57126416015625,6.111671447753906,-2.134481191635132,7.370724201202393
1764634071909998300,17.587998291015627,6.024949550628662,-2.165174722671509,7.432908535003662
1764634071926741200,17.6047412109375,5.95901346206665,-2.2009429931640625,7.475435256958008
1764634071943498000,17.621498046875,5.958498477935791,-2.253207206726074,7.460260391235352
1764634071960261400,17.638261474609376,6.014186859130859,-2.307231903076172,7.398807525634766
1764634071976980000,17.65497998046875,6.065402507781982,-2.3334758281707764,7.348597526550293
1764634071993723100,17.67172314453125,6.074697017669678,-2.316490650177002,7.346293926239014
1764634072010473200,17.68847314453125,6.049286365509033,-2.270172119140625,7.3816375732421875
1764634072027229400,17.7052294921875,6.0201334953308105,-2.2172739505767822,7.42144250869751
1764634072043963600,17.721963623046875,6.004829406738281,-2.1748123168945312,7.44636344909668
1764634072060718800,17.73871875,6.0152153968811035,-2.153339385986328,7.444221496582031
1764634072077449700,17.75544970703125,6.058731555938721,-2.142759323120117,7.411913871765137
1764634072094211800,17.7722119140625,6.130491256713867,-2.110347270965576,7.362039566040039
1764634072110974500,17.788974365234374,6.217787265777588,-2.0371735095977783,7.309251308441162
1764634072127701800,17.80570166015625,6.316699504852295,-1.9288848638534546,7.253608226776123
1764634072144450800,17.822450927734376,6.429289817810059,-1.8008294105529785,7.187305450439453
1764634072161198000,17.839197998046874,6.559047698974609,-1.6637694835662842,7.102596759796143
1764634072177935000,17.85593505859375,6.703552722930908,-1.5199167728424072,6.999166488647461
1764634072194691000,17.872691162109376,6.857910633087158,-1.366195559501648,6.880311489105225
1764634072211437000,17.88943701171875,7.015626907348633,-1.1909486055374146,6.752683162689209
1764634072228181200,17.90618115234375,7.17449426651001,-0.9860949516296387,6.617428779602051
1764634072244945400,17.9229453125,7.333613872528076,-0.7529138326644897,6.472042560577393
1764634072261673500,17.939673583984376,7.488920211791992,-0.49512264132499695,6.317202091217041
1764634072278423300,17.95642333984375,7.634225845336914,-0.2151164412498474,6.156982898712158
1764634072295169800,17.973169677734376,7.764121055603027,0.07336530834436417,5.995760917663574
1764634072311916000,17.989916015625,7.885709762573242,0.36317673325538635,5.824070453643799
1764634072328668200,18.006668212890624,7.999955177307129,0.6627921462059021,5.638929843902588
1764634072345408800,18.02340869140625,8.101347923278809,0.9802063703536987,5.444581508636475
1764634072362155800,18.04015576171875,8.189168930053711,1.3150099515914917,5.238738059997559
1764634072378901800,18.05690185546875,8.255841255187988,1.6682058572769165,5.029341697692871
1764634072395649000,18.07364892578125,8.29384994506836,2.0419938564300537,4.824772834777832
1764634072412376800,18.090376953125,8.302845001220703,2.429853916168213,4.625438690185547
1764634072429139700,18.1071396484375,8.290897369384766,2.821208953857422,4.420170783996582
1764634072445889300,18.12388916015625,8.261253356933594,3.211174726486206,4.204301357269287
1764634072462635000,18.140635009765624,8.211591720581055,3.6048896312713623,3.976259708404541
1764634072479381000,18.157381103515625,8.140427589416504,4.003308296203613,3.7340428829193115
1764634072496125700,18.174125732421874,8.046148300170898,4.401241302490234,3.48205304145813
1764634072512876300,18.190876220703124,7.928913593292236,4.792893886566162,3.2243759632110596
1764634072529620500,18.207620361328125,7.79118013381958,5.176370143890381,2.9561502933502197
1764634072546366700,18.22436669921875,7.624790668487549,5.559213638305664,2.6821305751800537
1764634072563112700,18.24111279296875,7.428269386291504,5.940827369689941,2.400728225708008
1764634072579860000,18.25785986328125,7.2061333656311035,6.312788963317871,2.1110308170318604
1764634072596623600,18.27462353515625,6.9607768058776855,6.669888973236084,1.815567970275879
1764634072613363000,18.291363037109374,6.702818393707275,7.00142765045166,1.5127288103103638
1764634072630098200,18.30809814453125,6.445949554443359,7.297271728515625,1.1981995105743408
1764634072646847200,18.32484716796875,6.187073707580566,7.5636820793151855,0.8642573952674866
1764634072663593000,18.341593017578123,5.916165828704834,7.807779788970947,0.5231392979621887
1764634072680338700,18.358338623046876,5.626376628875732,8.033740997314453,0.19748884439468384
1764634072697082000,18.37508203125,5.320655345916748,8.241150856018066,-0.10079430788755417
1764634072713835800,18.391835693359376,4.993892669677734,8.435544967651367,-0.37247204780578613
1764634072730579000,18.408578857421876,4.6477179527282715,8.617194175720215,-0.6154562830924988
1764634072747324700,18.42532470703125,4.28826904296875,8.783743858337402,-0.832280158996582
1764634072764082000,18.44208203125,3.924818515777588,8.932121276855469,-1.0242708921432495
1764634072780821200,18.4588212890625,3.571963310241699,9.058348655700684,-1.1931062936782837
1764634072797565000,18.47556494140625,3.234071731567383,9.163053512573242,-1.3473438024520874
1764634072814311000,18.492310791015626,2.907998561859131,9.24839973449707,-1.4989255666732788
1764634072831058000,18.509057861328124,2.595079183578491,9.315727233886719,-1.6489189863204956
1764634072847804000,18.525803955078125,2.300737142562866,9.366522789001465,-1.7919158935546875
1764634072864551000,18.542551025390626,2.0282959938049316,9.402815818786621,-1.9259282350540161
1764634072881296400,18.55929638671875,1.7724530696868896,9.426589965820312,-2.057645320892334
1764634072898044000,18.5760439453125,1.5264191627502441,9.440436363220215,-2.1873157024383545
1764634072914790000,18.592789794921874,1.2796082496643066,9.448678016662598,-2.306777238845825
1764634072931541200,18.609541259765624,1.0230692625045776,9.45350170135498,-2.4126267433166504
1764634072948279000,18.626279052734375,0.7569823265075684,9.454509735107422,-2.5050625801086426
1764634072965033700,18.64303369140625,0.4964911937713623,9.449935913085938,-2.5861780643463135
1764634072981776000,18.65977587890625,0.2504377067089081,9.439865112304688,-2.6575095653533936
1764634072998523000,18.67652294921875,0.01902625523507595,9.425606727600098,-2.7191340923309326
1764634073015270700,18.693270751953126,-0.19431263208389282,9.408284187316895,-2.7717435359954834
1764634073032010500,18.710010498046874,-0.388091117143631,9.388482093811035,-2.8181400299072266
1764634073048765000,18.726764892578124,-0.5598352551460266,9.368020057678223,-2.857074737548828
1764634073065506600,18.743506591796876,-0.7108273506164551,9.348934173583984,-2.8858721256256104
1764634073082256600,18.760256591796875,-0.8380402326583862,9.332380294799805,-2.9052464962005615
1764634073099001900,18.777001953125,-0.9430187940597534,9.31918716430664,-2.9154052734375
1764634073115747800,18.793747802734377,-1.0324004888534546,9.309391975402832,-2.9164199829101562
1764634073132494600,18.81049462890625,-1.1129215955734253,9.301492691040039,-2.912003517150879
1764634073149240800,18.82724072265625,-1.1918094158172607,9.293692588806152,-2.905686140060425
1764634073165987800,18.84398779296875,-1.259621024131775,9.28848934173584,-2.893688678741455
1764634073182733600,18.860733642578126,-1.295548915863037,9.288579940795898,-2.8774948120117188
1764634073199480600,18.87748046875,-1.3030877113342285,9.289810180664062,-2.8701064586639404
1764634073216242700,18.89424267578125,-1.2842588424682617,9.294360160827637,-2.86385178565979
1764634073232986000,18.910986083984376,-1.2426429986953735,9.303313255310059,-2.8531224727630615
1764634073249706000,18.9277060546875,-1.1938637495040894,9.312372207641602,-2.844388723373413
1764634073266463200,18.944463134765623,-1.1406806707382202,9.321016311645508,-2.8378944396972656
1764634073283212500,18.961212646484373,-1.0799936056137085,9.33056354522705,-2.8302557468414307
1764634073299962000,18.977962158203123,-1.0031263828277588,9.341891288757324,-2.8211631774902344
1764634073316703500,18.994703369140623,-0.9107012748718262,9.354448318481445,-2.810879945755005
1764634073333452500,19.01145263671875,-0.8078931570053101,9.366804122924805,-2.8011417388916016
1764634073350198800,19.02819873046875,-0.6938925981521606,9.378948211669922,-2.791050672531128
1764634073366961400,19.04496142578125,-0.56524658203125,9.391040802001953,-2.779379367828369
1764634073383704600,19.06170458984375,-0.41581249237060547,9.403055191040039,-2.7650997638702393
1764634073400451800,19.078451904296877,-0.24687325954437256,9.414200782775879,-2.747360944747925
1764634073417196300,19.0951962890625,-0.06055669113993645,9.424168586730957,-2.7235066890716553
1764634073433945300,19.1119453125,0.13592058420181274,9.432642936706543,-2.6912572383880615
1764634073450691000,19.128691162109376,0.33717063069343567,9.439542770385742,-2.649050235748291
1764634073467421400,19.14542138671875,0.5462965965270996,9.443882942199707,-2.598224639892578
1764634073484170500,19.16217041015625,0.7613873481750488,9.44350528717041,-2.544917106628418
1764634073500917800,19.178917724609374,0.975395143032074,9.438729286193848,-2.4889962673187256
1764634073517663700,19.195663818359375,1.1914088726043701,9.430598258972168,-2.424971103668213
1764634073534410500,19.212410400390624,1.415642499923706,9.418107986450195,-2.3518710136413574
1764634073551156700,19.22915673828125,1.6575599908828735,9.396956443786621,-2.277244806289673
1764634073567919600,19.245919677734374,1.9165679216384888,9.365386962890625,-2.202821969985962
1764634073584646100,19.262646240234375,2.180189609527588,9.324410438537598,-2.1303179264068604
1764634073601396700,19.279396728515625,2.4374289512634277,9.277515411376953,-2.054938793182373
1764634073618142500,19.296142578125,2.6834194660186768,9.227275848388672,-1.973007321357727
1764634073634889500,19.312889404296875,2.9233877658843994,9.169403076171875,-1.9005191326141357
1764634073651635500,19.329635498046876,3.1600501537323,9.104792594909668,-1.8311115503311157
1764634073668382700,19.3463828125,3.3939568996429443,9.034958839416504,-1.7568974494934082
1764634073685128200,19.363128173828127,3.627269983291626,8.961838722229004,-1.6626707315444946
1764634073701875500,19.37987548828125,3.885174036026001,8.871033668518066,-1.5640697479248047
1764634073718621200,19.39662109375,4.176604747772217,8.75317668914795,-1.4744462966918945
1764634073735368200,19.4133681640625,4.482132434844971,8.613007545471191,-1.4009654521942139
1764634073752095500,19.430095458984376,4.773141384124756,8.468104362487793,-1.3207706212997437
1764634073768865300,19.446865234375,5.049522876739502,8.32321834564209,-1.2093297243118286
1764634073785604000,19.46360400390625,5.3372697830200195,8.161149024963379,-1.0701913833618164
1764634073802357800,19.480357666015625,5.65815544128418,7.95985221862793,-0.9285153746604919
1764634073819102200,19.497102294921874,5.996495246887207,7.7224626541137695,-0.8010758757591248
1764634073835845600,19.513845703125,6.323587894439697,7.469086647033691,-0.6790339946746826
1764634073852594400,19.530594482421876,6.625544548034668,7.213727951049805,-0.5480896830558777
1764634073869333500,19.54733349609375,6.902007102966309,6.96015739440918,-0.39321649074554443
1764634073886066000,19.56406591796875,7.164074897766113,6.698192596435547,-0.21528279781341553
1764634073902833700,19.580833740234375,7.428500175476074,6.407215595245361,-0.03294409066438675
1764634073919579600,19.59757958984375,7.6979522705078125,6.0792765617370605,0.14154179394245148
1764634073936310800,19.614310791015626,7.95928430557251,5.726700782775879,0.3013453483581543
1764634073953072600,19.63107275390625,8.185551643371582,5.385624885559082,0.47737985849380493
1764634073969806300,19.647806396484373,8.36271858215332,5.079679489135742,0.7056231498718262
1764634073986545700,19.664545654296877,8.500112533569336,4.796350955963135,0.9895468354225159
1764634074003312000,19.68131201171875,8.627269744873047,4.490259170532227,1.282146692276001
1764634074020058400,19.698058349609376,8.758498191833496,4.144648551940918,1.5318965911865234
1764634074036805000,19.71480517578125,8.882318496704102,3.781841278076172,1.7430460453033447
1764634074053567700,19.731567626953126,8.972179412841797,3.4445838928222656,1.967474102973938
1764634074070295300,19.74829541015625,9.014158248901367,3.157787799835205,2.238175630569458
1764634074087044400,19.76504443359375,9.025904655456543,2.891470432281494,2.531510829925537
1764634074103791400,19.781791259765626,9.02553653717041,2.6275439262390137,2.8056745529174805
1764634074120537600,19.79853759765625,9.011165618896484,2.387704372406006,3.0551388263702393
1764634074137284000,19.8152841796875,8.977091789245605,2.1826820373535156,3.2990658283233643
1764634074154030000,19.832030029296874,8.928801536560059,1.9863626956939697,3.544992685317993
1764634074170777300,19.84877734375,8.872279167175293,1.7651169300079346,3.795147657394409
1764634074187523000,19.865523193359376,8.810342788696289,1.5309743881225586,4.033618927001953
1764634074204286700,19.88228662109375,8.741703987121582,1.3110250234603882,4.2544026374816895
1764634074221029600,19.899029541015626,8.66146183013916,1.1166584491729736,4.4685869216918945
1764634074237783800,19.91578369140625,8.55988883972168,0.9320046901702881,4.700613498687744
1764634074254535400,19.932535400390623,8.436882019042969,0.7313887476921082,4.951788425445557
1764634074271253000,19.9492529296875,8.308328628540039,0.500453531742096,5.19204568862915
1764634074288002000,19.966001953125,8.190468788146973,0.2622987926006317,5.392915725708008
1764634074304749000,19.9827490234375,8.08608627319336,0.040508341044187546,5.554249286651611
1764634074321495000,19.9994951171875,7.986775875091553,-0.15550699830055237,5.694149971008301
1764634074338242000,20.016241943359375,7.878780364990234,-0.3283056914806366,5.835507392883301
1764634074354988300,20.03298828125,7.752604961395264,-0.4970463812351227,5.990507125854492
1764634074371735300,20.0497353515625,7.609961032867432,-0.6706911325454712,6.1542487144470215
1764634074388481000,20.06648095703125,7.468538761138916,-0.8248436450958252,6.306874752044678
1764634074405224200,20.08322412109375,7.343142986297607,-0.940139651298523,6.436652660369873
1764634074421990400,20.099990478515625,7.245599269866943,-1.0297552347183228,6.532764434814453
1764634074438718000,20.116718017578126,7.178337097167969,-1.1102573871612549,6.5935516357421875
1764634074455467000,20.133467041015624,7.131156921386719,-1.1884480714797974,6.63101053237915
1764634074472200200,20.1502001953125,7.090460300445557,-1.25960373878479,6.661447525024414
1764634074488960000,20.1669599609375,7.049591541290283,-1.312287449836731,6.694571018218994
1764634074505703400,20.183703369140623,7.0051589012146,-1.3485357761383057,6.733892917633057
1764634074522456600,20.20045654296875,6.962305545806885,-1.3805969953536987,6.771731853485107
1764634074539185400,20.217185302734375,6.924636363983154,-1.4168078899383545,6.802806377410889
1764634074555927300,20.23392724609375,6.889518737792969,-1.4594507217407227,6.8293962478637695
1764634074572681700,20.250681640625,6.851111888885498,-1.5092953443527222,6.857142448425293
1764634074589439000,20.26743896484375,6.802468776702881,-1.5608245134353638,6.893936634063721
1764634074606171400,20.28417138671875,6.741870403289795,-1.6063963174819946,6.9428229331970215
1764634074622932000,20.300931884765625,6.671679973602295,-1.6492583751678467,7.000339508056641
1764634074639679000,20.317678955078126,6.599313259124756,-1.6929055452346802,7.058274745941162
1764634074656425000,20.334425048828123,6.528682708740234,-1.7377948760986328,7.112839221954346
1764634074673182700,20.3511826171875,6.460979461669922,-1.7768750190734863,7.164814472198486
1764634074689902600,20.367902587890626,6.402166366577148,-1.8064085245132446,7.210080146789551
1764634074706649300,20.3846494140625,6.353716850280762,-1.8292871713638306,7.24707555770874
1764634074723411000,20.401410888671876,6.314976215362549,-1.8534730672836304,7.274738788604736
1764634074740154600,20.418154541015625,6.285029888153076,-1.884019136428833,7.29280424118042
1764634074756906200,20.43490625,6.258544921875,-1.9158871173858643,7.30726432800293
1764634074773649000,20.45164892578125,6.242882251739502,-1.9481981992721558,7.312117099761963
1764634074790390800,20.468390869140624,6.254446983337402,-1.9876078367233276,7.291598796844482
1764634074807144400,20.48514453125,6.281023025512695,-2.027458906173706,7.257704257965088
1764634074823888100,20.50188818359375,6.299444675445557,-2.0539655685424805,7.234247207641602
1764634074840630800,20.518630859375,6.303053379058838,-2.0611414909362793,7.229061603546143
1764634074857400000,20.535400146484374,6.299875259399414,-2.0557072162628174,7.233377933502197
1764634074874111500,20.552111572265623,6.297215938568115,-2.046271562576294,7.238368034362793
1764634074890876200,20.568876220703125,6.290502548217773,-2.0338294506073,7.247704982757568
1764634074907607800,20.58560791015625,6.281312465667725,-2.019829273223877,7.259581089019775
1764634074924369000,20.602368896484375,6.275239944458008,-2.003970146179199,7.269221305847168
1764634074941100500,20.6191005859375,6.2745442390441895,-1.9823445081710815,7.2757487297058105
1764634074957858300,20.6358583984375,6.287568092346191,-1.9461928606033325,7.274265289306641
1764634074974612700,20.65261279296875,6.324851036071777,-1.8938571214675903,7.255733966827393
1764634074991355100,20.669355224609376,6.386953830718994,-1.835153341293335,7.216310977935791
1764634075008098000,20.68609814453125,6.475221633911133,-1.7677218914031982,7.154214382171631
1764634075024867800,20.702867919921875,6.5818376541137695,-1.6843525171279907,7.076614856719971
1764634075041600800,20.719600830078125,6.690274715423584,-1.5861438512802124,6.997176647186279
1764634075058353400,20.736353515625,6.795073986053467,-1.471691370010376,6.920780658721924
1764634075075084500,20.75308447265625,6.904890060424805,-1.334374189376831,6.839447975158691
1764634075091834000,20.769834228515624,7.030769348144531,-1.1744598150253296,6.739809989929199
1764634075108582000,20.786581787109377,7.1797356605529785,-0.9985623955726624,6.609869480133057
1764634075125325800,20.803325927734374,7.349818706512451,-0.810164213180542,6.446697235107422
1764634075142073900,20.820073974609375,7.532656192779541,-0.6058975458145142,6.255245208740234
1764634075158817800,20.83681787109375,7.709768295288086,-0.37851688265800476,6.054114818572998
1764634075175569000,20.85356884765625,7.86651086807251,-0.1173679456114769,5.860063552856445
1764634075192313000,20.87031298828125,8.00940990447998,0.17126554250717163,5.661813735961914
1764634075209056000,20.887055908203124,8.144070625305176,0.471107542514801,5.448695182800293
1764634075225809700,20.9038095703125,8.269567489624023,0.7731314301490784,5.2204060554504395
1764634075242568700,20.920568603515626,8.384857177734375,1.0781117677688599,4.976740837097168
1764634075259309800,20.937309814453126,8.487897872924805,1.3859049081802368,4.719213485717773
1764634075276047000,20.954047119140625,8.570074081420898,1.7019799947738647,4.460179328918457
1764634075292792000,20.9707919921875,8.622933387756348,2.033651828765869,4.212527751922607
1764634075309538800,20.987538818359376,8.636641502380371,2.383934497833252,3.9951696395874023
1764634075326284800,21.004284912109377,8.614853858947754,2.7486324310302734,3.803342342376709
1764634075343031800,21.02103173828125,8.572752952575684,3.1107285022735596,3.6148838996887207
1764634075359774000,21.03777392578125,8.523683547973633,3.4559645652770996,3.4116344451904297
1764634075376544500,21.05454443359375,8.474937438964844,3.784367561340332,3.1764936447143555
1764634075393268500,21.0712685546875,8.423535346984863,4.100180625915527,2.910097599029541
1764634075410018000,21.08801806640625,8.356303215026855,4.414177417755127,2.631223440170288
1764634075426764300,21.104764404296876,8.263668060302734,4.730703830718994,2.359734535217285
1764634075443507500,21.121507568359377,8.147627830505371,5.04482889175415,2.0980896949768066
1764634075460260400,21.13826025390625,8.011032104492188,5.353521823883057,1.8437122106552124
1764634075476988400,21.154988525390625,7.85077428817749,5.662001132965088,1.594738483428955
1764634075493750000,21.17175,7.66982364654541,5.964484214782715,1.3545628786087036
1764634075510495200,21.1884951171875,7.472771167755127,6.256794452667236,1.1163867712020874
1764634075527244500,21.20524462890625,7.258701801300049,6.540545463562012,0.8767175078392029
1764634075543983900,21.22198388671875,7.031704902648926,6.810267448425293,0.641483724117279
1764634075560735700,21.23873583984375,6.798022747039795,7.060932636260986,0.4077187776565552
1764634075577483000,21.25548291015625,6.558182239532471,7.293631076812744,0.17116495966911316
1764634075594225400,21.272225341796876,6.303943157196045,7.516193866729736,-0.057023510336875916
1764634075610979000,21.28897900390625,6.028179168701172,7.734728813171387,-0.26673391461372375
1764634075627707600,21.305707763671876,5.729986667633057,7.949882984161377,-0.4502493739128113
1764634075644469000,21.322468994140625,5.422250747680664,8.152106285095215,-0.6151899695396423
1764634075661210400,21.33921044921875,5.119487762451172,8.332253456115723,-0.7749248147010803
1764634075677966000,21.355966064453124,4.820871829986572,8.49289608001709,-0.9306033849716187
1764634075694701300,21.372701416015627,4.523502826690674,8.638639450073242,-1.0714192390441895
1764634075711455000,21.389455078125,4.221113681793213,8.773580551147461,-1.2010804414749146
1764634075728201000,21.406200927734375,3.913681745529175,8.896678924560547,-1.3297799825668335
1764634075744947700,21.42294775390625,3.5982706546783447,9.007339477539062,-1.4684747457504272
1764634075761702700,21.43970263671875,3.2873923778533936,9.100829124450684,-1.6137195825576782
1764634075778457000,21.45645703125,3.003612756729126,9.173395156860352,-1.7502155303955078
1764634075795195100,21.473195068359374,2.7599430084228516,9.226089477539062,-1.870319128036499
1764634075811951400,21.489951416015625,2.5457658767700195,9.265327453613281,-1.9770864248275757
1764634075828683800,21.506683837890623,2.3571200370788574,9.293564796447754,-2.0759921073913574
1764634075845418000,21.52341796875,2.1971170902252197,9.31114673614502,-2.1705687046051025
1764634075862187800,21.540187744140624,2.067000389099121,9.319705963134766,-2.2598025798797607
1764634075878916900,21.556916748046874,1.9622113704681396,9.32285213470459,-2.338864803314209
1764634075895650300,21.573650390625,1.8784013986587524,9.32345199584961,-2.404362678527832
1764634075912406800,21.59040673828125,1.8086482286453247,9.324596405029297,-2.4529242515563965
1764634075929158700,21.60715869140625,1.7405107021331787,9.330230712890625,-2.4806313514709473
1764634075945905700,21.62390576171875,1.6635013818740845,9.341630935668945,-2.490541458129883
1764634075962652000,21.64065185546875,1.5778480768203735,9.357765197753906,-2.485708713531494
1764634075979399000,21.65739892578125,1.4982943534851074,9.375572204589844,-2.4677672386169434
1764634075996156200,21.67415625,1.4390639066696167,9.39134407043457,-2.442922592163086
1764634076012908800,21.69090869140625,1.3965052366256714,9.40446662902832,-2.4170031547546387
1764634076029651000,21.70765087890625,1.359920620918274,9.415860176086426,-2.3933846950531006
1764634076046397700,21.724397705078125,1.3216474056243896,9.426794052124023,-2.3716909885406494
