time,seconds_elapsed,z,y,x
1764634054506211800,0.1842119140625,-0.4489859640598297,0.7484626173973083,1.5180001258850098
1764634054522961400,0.20096142578125,-0.6151412725448608,0.513737678527832,1.2809844017028809
1764634054539715000,0.217715087890625,-0.7568620443344116,0.23167064785957336,0.8268061280250549
1764634054556459300,0.234459228515625,-0.7041749358177185,-0.009010262787342072,0.29535335302352905
1764634054573195800,0.25119580078125,-0.46929723024368286,-0.2565633952617645,-0.32009339332580566
1764634054589936400,0.267936279296875,-0.2076941877603531,-0.5057964324951172,-0.9158397316932678
1764634054606698200,0.2846982421875,-0.052228979766368866,-0.6006332635879517,-1.350012183189392
1764634054623443700,0.301443603515625,0.047800205647945404,-0.588874101638794,-1.538158655166626
1764634054640184800,0.318184814453125,0.1270599663257599,-0.6508769392967224,-1.5323554277420044
1764634054656938500,0.3349384765625,0.168751522898674,-0.812908947467804,-1.435227870941162
1764634054673683200,0.35168310546875,0.17791450023651123,-0.9523389339447021,-1.3353514671325684
1764634054690429700,0.3684296875,0.1644754707813263,-1.1004737615585327,-1.3631458282470703
1764634054707176700,0.3851767578125,0.1693623960018158,-1.078635334968567,-1.5176947116851807
1764634054723910000,0.401909912109375,0.15913039445877075,-0.9150761365890503,-1.6626224517822266
1764634054740673800,0.418673828125,0.06673702597618103,-0.7150177955627441,-1.7165313959121704
1764634054757410800,0.435410888671875,-0.06582073122262955,-0.52702397108078,-1.7704402208328247
1764634054774156000,0.452156005859375,-0.16294831037521362,-0.30085113644599915,-1.834428310394287
1764634054790900500,0.468900390625,-0.2226603776216507,-0.07528914511203766,-1.7617353200912476
1764634054807670500,0.48567041015625,-0.27122417092323303,0.1495092660188675,-1.5285375118255615
1764634054824412000,0.502411865234375,-0.32589662075042725,0.35705074667930603,-1.2915217876434326
1764634054841129500,0.51912939453125,-0.3874412775039673,0.4473060667514801,-1.1488847732543945
1764634054857894100,0.53589404296875,-0.4804455041885376,0.4996877610683441,-0.9712757468223572
1764634054874641400,0.552641357421875,-0.5972734689712524,0.33200526237487793,-0.9004153609275818
1764634054891371800,0.569371826171875,-0.6542366743087769,0.29138273000717163,-0.9665415287017822
1764634054908134100,0.586134033203125,-0.6047565937042236,0.22907446324825287,-1.0387763977050781
1764634054924866800,0.60286669921875,-0.47418415546417236,0.05054909735918045,-1.0743592977523804
1764634054941628700,0.619628662109375,-0.3225368559360504,-0.31062498688697815,-1.1113165616989136
1764634054958388700,0.636388671875,-0.21334469318389893,-0.7338019013404846,-1.1835514307022095
1764634054975130000,0.653130126953125,-0.13469578325748444,-1.0175487995147705,-1.288162112236023
1764634054991872800,0.669872802734375,-0.033139441162347794,-1.175152063369751,-1.3306171894073486
1764634055008622600,0.68662255859375,0.12797626852989197,-0.8544477820396423,-1.3422236442565918
1764634055025357300,0.703357421875,0.30253100395202637,-0.4381431043148041,-1.3025174140930176
1764634055042101200,0.720101318359375,0.384845107793808,-0.347276896238327,-1.2180652618408203
1764634055058851300,0.736851318359375,0.28756481409072876,-0.6325509548187256,-1.108567714691162
1764634055075597000,0.75359716796875,0.07406741380691528,-0.8232936263084412,-0.9943358898162842
1764634055092345300,0.770345458984375,-0.005650503560900688,-0.9190467596054077,-0.9894489645957947
1764634055109080300,0.787080322265625,0.10919216275215149,-0.7987062931060791,-1.11391282081604
1764634055125833200,0.803833251953125,0.17027868330478668,-0.8521569967269897,-1.394452691078186
1764634055142601500,0.8206015625,0.2275473028421402,-1.2707524299621582,-1.7989981174468994
1764634055159338200,0.837338134765625,0.532369077205658,-1.7218763828277588,-1.9882136583328247
1764634055176090000,0.854090087890625,0.8851437568664551,-1.8128952980041504,-1.653917670249939
1764634055192841000,0.870841064453125,0.9411906003952026,-1.7739527225494385,-1.021824836730957
1764634055209563100,0.887563232421875,0.6792821288108826,-1.7988454103469849,-0.42898011207580566
1764634055226329300,0.904329345703125,0.3778201639652252,-1.6895005702972412,-0.19853121042251587
1764634055243074000,0.921073974609375,0.24892759323120117,-1.4208725690841675,-0.37629300355911255
1764634055259827000,0.937826904296875,0.2929098904132843,-1.171334147453308,-0.783892810344696
1764634055276553200,0.95455322265625,0.3972151279449463,-0.9198103547096252,-1.1554516553878784
1764634055293302300,0.97130224609375,0.35094207525253296,-1.0157161951065063,-1.2087496519088745
1764634055310052400,0.98805224609375,0.47189339995384216,-1.3435981273651123,-1.4230105876922607
1764634055326801700,1.0048017578125,0.7012733221054077,-1.1410962343215942,-1.9159787893295288
1764634055343542500,1.02154248046875,0.7991644740104675,-0.9219483733177185,-2.2870795726776123
1764634055360288300,1.038288330078125,0.9717338681221008,-0.26862800121307373,-2.4155139923095703
1764634055377036000,1.0550361328125,1.3825408220291138,0.5911648273468018,-1.874592661857605
1764634055393783300,1.071783203125,1.4663820266723633,0.8431467413902283,-0.8193230032920837
1764634055410528000,1.088528076171875,1.2162326574325562,0.685390830039978,0.5503895878791809
1764634055427288800,1.105288818359375,0.9207266569137573,0.8089383244514465,2.046093225479126
1764634055444031200,1.12203125,0.6673702597618103,0.8932377099990845,3.371670722961426
1764634055460776400,1.1387763671875,0.5407684445381165,-0.32589662075042725,3.8014144897460938
1764634055477515500,1.155515625,0.3179553747177124,-1.1898127794265747,3.2762229442596436
1764634055494259500,1.172259521484375,0.022449297830462456,-1.0783299207687378,2.2409591674804688
1764634055511006700,1.1890068359375,-0.28466320037841797,-0.41920626163482666,1.418123722076416
1764634055527754800,1.205754638671875,-0.4308127164840698,0.17577648162841797,1.2101240158081055
1764634055544498400,1.22249853515625,-0.4612032473087311,0.35964691638946533,1.2237157821655273
1764634055561246000,1.239245849609375,-0.42348232865333557,0.3651446998119354,1.258840560913086
1764634055577999000,1.2559990234375,-0.4056145250797272,0.23900102078914642,1.2933543920516968
1764634055594740700,1.27274072265625,-0.4337143301963806,0.007024950347840786,1.328937292098999
1764634055611483400,1.2894833984375,-0.47250425815582275,-0.3142901659011841,1.339932918548584
1764634055628234800,1.30623486328125,-0.4492913782596588,-0.6168211698532104,1.4091134071350098
1764634055644972500,1.32297265625,-0.4225660264492035,-0.7904596328735352,1.4761558771133423
1764634055661726200,1.339726318359375,-0.42898011207580566,-0.6805039048194885,1.3622294664382935
1764634055678484000,1.35648388671875,-0.3874412775039673,-0.48869219422340393,1.0810787677764893
1764634055695230200,1.373230224609375,-0.19303341209888458,-0.16752979159355164,0.7980954647064209
1764634055711947000,1.389947021484375,0.19165897369384766,0.06475171446800232,0.6760751008987427
1764634055728736000,1.406736083984375,0.5687155723571777,0.052228979766368866,0.4963280260562897
1764634055745466400,1.42346630859375,0.4990769028663635,-0.12980885803699493,0.09498954564332962
1764634055762218200,1.44021826171875,-0.12522737681865692,-0.04489859566092491,-0.7444919943809509
1764634055778945800,1.45694580078125,-0.4355469346046448,0.3119994103908539,-1.8504635095596313
1764634055795709400,1.47370947265625,0.23075434565544128,1.2512047290802002,-1.9614882469177246
1764634055812455700,1.49045556640625,0.6498079299926758,2.027156352996826,-1.0044151544570923
1764634055829183500,1.50718359375,0.14385876059532166,1.7832683324813843,0.32589662075042725
1764634055845924900,1.5239248046875,-0.14752395451068878,0.9071348905563354,1.5459471940994263
1764634055862684200,1.54068408203125,0.010537425056099892,0.447000652551651,2.0418171882629395
1764634055879429400,1.557429443359375,0.19898934662342072,0.3908010423183441,1.9118554592132568
1764634055896171000,1.5741708984375,0.20463985204696655,0.6282749176025391,1.5628987550735474
1764634055912922400,1.59092236328125,0.033139441162347794,0.9283624291419983,1.327562928199768
1764634055929665500,1.60766552734375,-0.16401731967926025,0.8994990587234497,1.3264938592910767
1764634055946412800,1.624412841796875,-0.11743884533643723,0.3315471112728119,1.568701982498169
1764634055963182800,1.641182861328125,-0.2765692472457886,-0.23105977475643158,1.8559613227844238
1764634055979901700,1.657901611328125,-0.40362921357154846,-0.32681289315223694,2.0274617671966553
1764634055996651800,1.67465185546875,-0.40775254368782043,-0.1186605766415596,2.0612120628356934
1764634056013402400,1.69140234375,-0.3620903789997101,0.029932396486401558,2.1093177795410156
1764634056030147600,1.708147705078125,-0.4473060667514801,0.19853121042251587,2.274709463119507
1764634056046893000,1.72489306640625,-0.7292203903198242,0.45326200127601624,2.4918720722198486
1764634056063643400,1.741643310546875,-1.0363328456878662,0.7336491346359253,2.6390905380249023
1764634056080390000,1.758389892578125,-1.220050573348999,0.8553640842437744,2.658027410507202
1764634056097145000,1.77514501953125,-1.3243558406829834,0.7805330753326416,2.7058277130126953
1764634056113896200,1.791896240234375,-1.4060590267181396,0.4784601926803589,2.830291509628296
1764634056130637000,1.808636962890625,-1.5268577337265015,0.0731511116027832,2.9907963275909424
1764634056147383800,1.8253837890625,-1.6869044303894043,-0.2292271852493286,3.0978503227233887
1764634056164128300,1.842128173828125,-1.7605136632919312,-0.25595253705978394,3.065474510192871
1764634056180876300,1.858876220703125,-1.744478464126587,0.02779436856508255,2.9191722869873047
1764634056197627100,1.875627197265625,-1.6995798349380493,0.41004329919815063,2.689028739929199
1764634056214369500,1.89236962890625,-1.6685783863067627,0.7648032903671265,2.5030202865600586
1764634056231126300,1.909126220703125,-1.6519323587417603,1.0554224252700806,2.4776694774627686
1764634056247863800,1.92586376953125,-1.6029103994369507,1.1838568449020386,2.540588617324829
1764634056264613400,1.94261328125,-1.5013540983200073,1.3662000894546509,2.6053402423858643
1764634056281357600,1.959357666015625,-1.3700180053710938,1.5347989797592163,2.5831964015960693
1764634056298085600,1.976085693359375,-1.238071084022522,1.6035212278366089,2.5395195484161377
1764634056314833700,1.992833740234375,-1.0673342943191528,1.5344934463500977,2.5088236331939697
1764634056331585300,2.009585205078125,-0.9158397316932678,1.4850133657455444,2.53249454498291
1764634056348331000,2.0263310546875,-0.8619308471679688,1.3697125911712646,2.4967589378356934
1764634056365072400,2.043072265625,-0.7980954647064209,1.2567025423049927,2.4297165870666504
1764634056381823500,2.059823486328125,-0.5639813542366028,1.1791226863861084,2.3186917304992676
1764634056398571500,2.076571533203125,-0.36590829491615295,1.1701123714447021,2.1314616203308105
1764634056415330000,2.093330078125,-0.1963931769132614,1.2554807662963867,2.0447187423706055
1764634056432078000,2.110078125,-0.12538009881973267,1.4167492389678955,2.065335512161255
1764634056448818400,2.126818359375,-0.14737124741077423,1.5111279487609863,1.9876028299331665
1764634056465552100,2.14355224609375,-0.17898350954055786,1.5082262754440308,1.7429512739181519
1764634056482305500,2.160305419921875,-0.18356500566005707,1.3767375946044922,1.4538593292236328
1764634056499052800,2.177052734375,-0.1644754707813263,1.1899654865264893,1.2394455671310425
1764634056515794200,2.193794189453125,-0.14278975129127502,1.0196868181228638,1.1114692687988281
1764634056532543200,2.210543212890625,-0.05864306539297104,0.8610145449638367,0.970054030418396
1764634056549288400,2.227288330078125,0.043676864355802536,0.6846272349357605,0.7686212062835693
1764634056566036700,2.24403662109375,0.03084869496524334,0.34406983852386475,0.5247332453727722
1764634056582777600,2.260777587890625,-0.17302757501602173,0.11407908797264099,0.3147483170032501
1764634056599529000,2.277529052734375,-0.12003502249717712,0.14538592100143433,0.3016147017478943
1764634056616273000,2.29427294921875,-0.08078692853450775,0.06536258012056351,0.30925053358078003
1764634056633021000,2.31102099609375,-0.05726861581206322,0.06475171446800232,0.3448334336280823
1764634056649752000,2.327751953125,-0.07941248267889023,0.05314527451992035,0.27550023794174194
1764634056666514000,2.344513916015625,-0.18646661937236786,0.047189339995384216,0.08368854224681854
1764634056683278600,2.361278564453125,-0.3090978264808655,0.06017022579908371,-0.18417587876319885
1764634056700016000,2.37801611328125,-0.41691553592681885,0.06475171446800232,-0.3784310221672058
1764634056716765200,2.39476513671875,-0.4671591818332672,0.07376197725534439,-0.4521929919719696
1764634056733513000,2.411512939453125,-0.4688390791416168,0.05406157299876213,-0.4677700698375702
1764634056750256600,2.428256591796875,-0.4314235746860504,-0.05604688450694084,-0.5201517343521118
1764634056767006700,2.4450068359375,-0.3706424832344055,-0.22846360504627228,-0.6249151229858398
1764634056783752700,2.461752685546875,-0.3110831379890442,-0.42989641427993774,-0.7426594495773315
1764634056800495600,2.47849560546875,-0.2629774808883667,-0.5778785347938538,-0.8052731156349182
1764634056817233700,2.495233642578125,-0.2096794992685318,-0.6293439269065857,-0.794277548789978
1764634056833978600,2.511978515625,-0.14614951610565186,-0.6708827614784241,-0.7666358947753906
1764634056850725000,2.52872509765625,-0.0832303911447525,-0.8222246170043945,-0.7968736886978149
1764634056867473000,2.545472900390625,-0.0656680166721344,-1.072221279144287,-0.9431759119033813
1764634056884218600,2.562218505859375,-0.009010262787342072,-1.2034045457839966,-1.1804970502853394
1764634056900960800,2.578960693359375,0.050243668258190155,-1.2725850343704224,-1.363909363746643
1764634056917728500,2.595728515625,0.03039054572582245,-1.4121677875518799,-1.4103351831436157
1764634056934462500,2.61246240234375,-0.04489859566092491,-1.5697709321975708,-1.4259121417999268
1764634056951208700,2.629208740234375,-0.00931569468230009,-1.4599679708480835,-1.5241087675094604
1764634056967955700,2.645955810546875,0.12782354652881622,-1.1591167449951172,-1.7273741960525513
1764634056984695800,2.66269580078125,0.24083362519741058,-1.062447428703308,-1.9324722290039062
1764634057001443800,2.67944384765625,0.2376265823841095,-1.3555099964141846,-2.161241292953491
1764634057018190000,2.696190185546875,0.29077184200286865,-1.5375478267669678,-2.430938243865967
1764634057034931000,2.712930908203125,0.42241331934928894,-1.5218180418014526,-2.6085472106933594
1764634057051686400,2.729686279296875,0.5711590051651001,-1.507768154144287,-2.646573781967163
1764634057068430600,2.7464306640625,0.6670648455619812,-1.6919440031051636,-2.657111167907715
1764634057085158700,2.76315869140625,0.7347181439399719,-1.926210880279541,-2.749199151992798
1764634057101920800,2.779920654296875,0.812908947467804,-1.9440786838531494,-2.8075366020202637
1764634057118684000,2.796683837890625,0.840397834777832,-1.7507398128509521,-2.847853660583496
1764634057135417600,2.81341748046875,0.773202657699585,-1.6102408170700073,-2.8351783752441406
1764634057152174000,2.830174072265625,0.7257078886032104,-1.6322319507598877,-2.7120890617370605
1764634057168915000,2.8469150390625,0.7951938509941101,-1.7522670030593872,-2.5441009998321533
1764634057185649000,2.86364892578125,0.8860600590705872,-1.7780760526657104,-2.4269676208496094
1764634057202419000,2.8804189453125,0.984867513179779,-1.6759088039398193,-2.4216225147247314
1764634057219159000,2.897158935546875,1.0143417119979858,-1.586722493171692,-2.685058116912842
1764634057235886600,2.913886474609375,1.014647126197815,-1.5349516868591309,-3.082120656967163
1764634057252654300,2.930654296875,1.0604621171951294,-1.6708691120147705,-3.2588133811950684
1764634057269399000,2.94739892578125,1.0910053253173828,-1.82404363155365,-2.9657506942749023
1764634057286131700,2.964131591796875,1.126588225364685,-1.9387335777282715,-2.534327268600464
1764634057302876700,2.980876708984375,1.1142182350158691,-1.8877263069152832,-2.3707680702209473
1764634057319627000,2.997626953125,1.1614075899124146,-1.77670156955719,-2.353205680847168
1764634057336371200,3.01437109375,1.1945469379425049,-1.7272214889526367,-2.222480535507202
1764634057353119200,3.031119140625,1.164156436920166,-1.8087719678878784,-2.0218112468719482
1764634057369851100,3.04785107421875,1.084285855293274,-1.7997617721557617,-1.8380935192108154
1764634057386610200,3.064610107421875,1.0178542137145996,-1.7594445943832397,-1.7171422243118286
1764634057403375000,3.081375,0.9812023043632507,-1.7875443696975708,-1.706910252571106
1764634057420128500,3.09812841796875,0.9590584635734558,-1.7999144792556763,-1.7214182615280151
1764634057436860000,3.11485986328125,0.9172141551971436,-1.8985692262649536,-1.7102699279785156
1764634057453598000,3.131597900390625,0.8811731338500977,-1.920560359954834,-1.7197383642196655
1764634057470345500,3.148345458984375,0.8046622276306152,-1.7594445943832397,-1.7076737880706787
1764634057487076600,3.16507666015625,0.7029531598091125,-1.5717562437057495,-1.5625933408737183
1764634057503837000,3.1818369140625,0.6907358765602112,-1.4278974533081055,-1.2977832555770874
1764634057520584200,3.198584228515625,0.749531626701355,-1.31748366355896,-1.0465649366378784
1764634057537334500,3.21533447265625,0.8810204267501831,-1.3413074016571045,-0.9578366875648499
1764634057554084000,3.232083984375,0.9392052888870239,-1.373683214187622,-0.9886853694915771
1764634057570818600,3.248818603515625,0.9221010804176331,-1.3225232362747192,-1.0163270235061646
1764634057587583000,3.2655830078125,0.8608618378639221,-1.2179125547409058,-0.9138544201850891
1764634057604330800,3.282330810546875,0.8463537693023682,-1.0914634466171265,-0.7148650288581848
1764634057621057300,3.299057373046875,0.9575312733650208,-0.9150761365890503,-0.5691736936569214
1764634057637822000,3.315822021484375,0.916450560092926,-0.5190827250480652,-0.5809328556060791
1764634057654569200,3.3325693359375,0.7678576111793518,-0.22372940182685852,-0.794277548789978
1764634057671299000,3.349299072265625,0.698066234588623,-0.2551889419555664,-0.9770789742469788
1764634057688043800,3.366043701171875,0.6953173875808716,-0.33475416898727417,-0.9069821834564209
1764634057704808700,3.38280859375,0.6669121384620667,-0.4334088861942291,-0.6994407176971436
1764634057721511700,3.39951171875,0.6627888083457947,-0.5650503635406494,-0.5233588218688965
1764634057738286300,3.416286376953125,0.6441574096679688,-0.6713408827781677,-0.4098905920982361
1764634057755035000,3.433034912109375,0.5528330206871033,-0.6070473194122314,-0.28955012559890747
1764634057771781000,3.449781005859375,0.42760565876960754,-0.4329507350921631,-0.2194533348083496
1764634057788527600,3.466527587890625,0.32788193225860596,-0.24495697021484375,-0.21578814089298248
1764634057805260000,3.483260009765625,0.31551191210746765,-0.15790866315364838,-0.2177734673023224
1764634057822020600,3.5000205078125,0.33368512988090515,-0.15393804013729095,-0.18280142545700073
1764634057838767000,3.51676708984375,0.32620203495025635,-0.2073887437582016,-0.10919216275215149
1764634057855513600,3.533513671875,0.3003929853439331,-0.3326161205768585,-0.04046982154250145
1764634057872261000,3.55026123046875,0.252287358045578,-0.4499022662639618,0.033139441162347794
1764634057889006600,3.567006591796875,0.17562375962734222,-0.44684791564941406,0.08185594528913498
1764634057905764900,3.583764892578125,0.11530081182718277,-0.37537670135498047,0.04398229718208313
1764634057922514000,3.600513916015625,0.05207626149058342,-0.23945917189121246,-0.04917465150356293
1764634057939246800,3.617246826171875,-0.01572977937757969,-0.12247848510742188,-0.14492778480052948
1764634057955992600,3.63399267578125,-0.06750060617923737,-0.06963863968849182,-0.19624045491218567
1764634057972739000,3.650739013671875,-0.11957687139511108,-0.07941248267889023,-0.17043140530586243
1764634057989485300,3.6674853515625,-0.168751522898674,-0.10247264802455902,-0.12095131725072861
1764634058006233000,3.684233154296875,-0.19089539349079132,-0.06887505948543549,-0.08078692853450775
1764634058022981600,3.700981689453125,-0.20387627184391022,0.02519819140434265,-0.038179077208042145
1764634058039737600,3.717737548828125,-0.22846360504627228,0.16752979159355164,0.028557950630784035
1764634058056484400,3.734484375,-0.25595253705978394,0.2626720666885376,0.09743300825357437
1764634058073231600,3.751231689453125,-0.28680121898651123,0.3465133011341095,0.18616119027137756
1764634058089955600,3.76795556640625,-0.33108896017074585,0.4265366494655609,0.27030786871910095
1764634058106711000,3.7847109375,-0.3767511546611786,0.47998735308647156,0.34758231043815613
1764634058123457300,3.801457275390625,-0.41523563861846924,0.5132794976234436,0.4066835343837738
1764634058140204800,3.818204833984375,-0.46441030502319336,0.47219884395599365,0.432645320892334
1764634058156946200,3.8349462890625,-0.5592471361160278,0.43447789549827576,0.44944411516189575
1764634058173700600,3.85170068359375,-0.7226535677909851,0.5887213945388794,0.44913867115974426
1764634058190446300,3.8684462890625,-0.808174729347229,0.808174729347229,0.3478877544403076
1764634058207203600,3.88520361328125,-0.9292787313461304,0.9547823667526245,0.3202461004257202
1764634058223949000,3.901948974609375,-1.0473284721374512,1.1491901874542236,0.33017265796661377
1764634058240695300,3.9186953125,-1.1198687553405762,1.1621711254119873,0.40225476026535034
1764634058257458700,3.935458740234375,-1.1317806243896484,0.935998260974884,0.5254968404769897
1764634058274189800,3.95218994140625,-1.0621418952941895,0.6366742849349976,0.6829473376274109
1764634058290918700,3.968918701171875,-1.0367910861968994,0.4524984359741211,0.9085093140602112
1764634058307664600,3.98566455078125,-1.2293663024902344,0.694248378276825,1.1774427890777588
1764634058324405000,4.002405029296875,-1.5493069887161255,1.2820534706115723,1.2901474237442017
1764634058341162500,4.01916259765625,-1.7690657377243042,2.067931652069092,1.255022644996643
1764634058357905400,4.035905517578125,-1.829999566078186,2.6952900886535645,1.222494125366211
1764634058374657000,4.052656982421875,-1.7690657377243042,2.8550314903259277,1.3058772087097168
1764634058391389700,4.0693896484375,-1.6449073553085327,2.7600419521331787,1.532508134841919
1764634058408144600,4.08614453125,-1.560760736465454,2.565023183822632,1.8906279802322388
1764634058424897800,4.102897705078125,-1.4743232727050781,2.3408355712890625,2.255925416946411
1764634058441640200,4.11964013671875,-1.3984233140945435,2.233781576156616,2.5219571590423584
1764634058458371000,4.13637109375,-1.3523029088974,2.2178990840911865,2.665663242340088
1764634058475134200,4.15313427734375,-1.2906055450439453,2.197282314300537,2.727818727493286
1764634058491880000,4.1698798828125,-1.2571606636047363,2.183537721633911,2.769052267074585
1764634058508626400,4.18662646484375,-1.2580770254135132,2.157270669937134,2.7621798515319824
1764634058525372700,4.20337255859375,-1.2611312866210938,2.2003366947174072,2.72965145111084
1764634058542104800,4.220104736328125,-1.2263119220733643,2.27852725982666,2.6955955028533936
1764634058558865700,4.23686572265625,-1.1728612184524536,2.2853996753692627,2.6639833450317383
1764634058575612200,4.253612060546875,-1.1308642625808716,2.2044599056243896,2.6678011417388916
1764634058592358700,4.270358642578125,-1.1181888580322266,2.176970958709717,2.635578155517578
1764634058609097200,4.28709716796875,-1.1340713500976562,2.1365013122558594,2.57342267036438
1764634058625851600,4.3038515625,-1.1942415237426758,2.0454821586608887,2.498286247253418
1764634058642598100,4.32059814453125,-1.3361150026321411,2.0108156204223633,2.4135286808013916
1764634058659344400,4.337344482421875,-1.4981470108032227,2.032654047012329,2.3269383907318115
1764634058676087800,4.354087890625,-1.5193746089935303,2.2369885444641113,2.21698260307312
1764634058692837600,4.370837646484375,-1.4220943450927734,2.476294994354248,2.123825788497925
1764634058709584000,4.387583984375,-1.2748757600784302,2.5705208778381348,2.185981273651123
1764634058726331000,4.404330810546875,-1.1316279172897339,2.4272730350494385,2.3973405361175537
1764634058743070200,4.4210703125,-0.988990843296051,2.029599666595459,2.5697574615478516
1764634058759810800,4.437810791015625,-0.850782573223114,1.616349458694458,2.5667030811309814
1764634058776570000,4.454570068359375,-0.7347181439399719,1.4057536125183105,2.3912320137023926
1764634058793317600,4.471317626953125,-0.6695083379745483,1.457066297531128,2.1481075286865234
1764634058810062800,4.488062744140625,-0.6244570016860962,1.6030631065368652,1.9475910663604736
1764634058826809600,4.5048095703125,-0.6059783101081848,1.6757560968399048,1.8029687404632568
1764634058843555800,4.521555908203125,-0.5858197808265686,1.6658295392990112,1.704161286354065
1764634058860302300,4.53830224609375,-0.5001459121704102,1.6548339128494263,1.680795669555664
1764634058877049900,4.5550498046875,-0.3903428912162781,1.6745343208312988,1.697441816329956
1764634058893808600,4.57180859375,-0.3017674386501312,1.6174184083938599,1.6394095420837402
1764634058910541800,4.588541748046875,-0.19456058740615845,1.5057828426361084,1.4701999425888062
1764634058927288300,4.605288330078125,-0.04993823543190956,1.4440854787826538,1.313360333442688
1764634058944035600,4.62203564453125,0.059864792972803116,1.2765556573867798,1.147204875946045
1764634058960781000,4.638781005859375,0.12538009881973267,0.9575312733650208,0.9601274728775024
1764634058977527800,4.65552783203125,0.194713294506073,0.6207917928695679,0.7735081315040588
1764634058994277400,4.67227734375,0.31001409888267517,0.3445279896259308,0.6140722632408142
1764634059011030300,4.6890302734375,0.3972151279449463,0.1264491081237793,0.4885394871234894
1764634059027784400,4.705784423828125,0.4103487432003021,0.02886338345706463,0.4251621961593628
1764634059044526300,4.7225263671875,0.3877467215061188,0.06627888232469559,0.3643811047077179
1764634059061268200,4.739268310546875,0.3376557528972626,0.13469578325748444,0.2718350291252136
1764634059078025500,4.756025390625,0.26542094349861145,0.15500704944133759,0.1898263692855835
1764634059094765600,4.772765625,0.20357084274291992,0.11407908797264099,0.10965031385421753
1764634059111508000,4.789508056640625,0.1598939746618271,0.06933320313692093,0.04092797264456749
1764634059128263700,4.806263671875,0.12461651116609573,0.03726277872920036,-0.044287730008363724
1764634059144987400,4.8229873046875,0.08567385375499725,-0.013286318629980087,-0.13668109476566315
1764634059161751800,4.839751708984375,0.04612032696604729,-0.08796459436416626,-0.24113905429840088
1764634059178498300,4.856498291015625,0.03481931984424591,-0.14187344908714294,-0.3628539443016052
1764634059195245000,4.8732451171875,0.028557950630784035,-0.17348572611808777,-0.4564690589904785
1764634059211991800,4.88999169921875,0.031612277030944824,-0.26633724570274353,-0.5349652171134949
1764634059228705500,4.90670556640625,0.03497203439474106,-0.38179078698158264,-0.57436603307724
1764634059245484000,4.923484130859375,0.07757988572120667,-0.4314235746860504,-0.5215262174606323
1764634059262230500,4.94023046875,0.13148874044418335,-0.3856086730957031,-0.4040873646736145
1764634059278962700,4.956962646484375,0.17027868330478668,-0.29917123913764954,-0.30085113644599915
1764634059295697400,4.973697509765625,0.19853121042251587,-0.19853121042251587,-0.23518311977386475
1764634059312457500,4.99045751953125,0.21533000469207764,-0.12553280591964722,-0.24526239931583405
1764634059329203700,5.00720361328125,0.21838432550430298,-0.14065171778202057,-0.36300668120384216
1764634059345947400,5.023947509765625,0.21578814089298248,-0.24617868661880493,-0.5422956347465515
1764634059362700500,5.040700439453125,0.19822576642036438,-0.4056145250797272,-0.7124215960502625
1764634059379437800,5.057437744140625,0.20036379992961884,-0.5384777188301086,-0.8987354636192322
1764634059396189400,5.074189453125,0.20601430535316467,-0.5916230082511902,-1.0626001358032227
1764634059412933600,5.09093359375,0.19349156320095062,-0.7258606553077698,-1.1902709007263184
1764634059429686300,5.107686279296875,0.19074267148971558,-0.9179777503013611,-1.3060299158096313
1764634059446415600,5.12441552734375,0.20295998454093933,-1.0334312915802002,-1.4098769426345825
1764634059463175400,5.141175537109375,0.19685132801532745,-1.1305588483810425,-1.4471397399902344
1764634059479924200,5.15792431640625,0.20173825323581696,-1.2121093273162842,-1.4911220073699951
1764634059496662800,5.174662841796875,0.20265454053878784,-1.2348641157150269,-1.6401731967926025
1764634059513411600,5.19141162109375,0.1814269721508026,-1.2405146360397339,-1.7395914793014526
1764634059530162000,5.208161865234375,0.1518000066280365,-1.330464482307434,-1.6951510906219482
1764634059546909000,5.224908935546875,0.21884247660636902,-1.4818063974380493,-1.6210836172103882
1764634059563656000,5.241656005859375,0.3312416672706604,-1.5578590631484985,-1.648572564125061
1764634059580390700,5.258390625,0.4349360466003418,-1.605353832244873,-1.7762434482574463
1764634059597148200,5.275148193359375,0.4876231849193573,-1.6589572429656982,-1.989129900932312
1764634059613892900,5.291892822265625,0.5106833577156067,-1.5948164463043213,-2.26432466506958
1764634059630641400,5.308641357421875,0.47907108068466187,-1.4804319143295288,-2.5024094581604004
1764634059647385600,5.325385498046875,0.4190535545349121,-1.3773484230041504,-2.5607471466064453
1764634059664110000,5.342110107421875,0.40515637397766113,-1.3426817655563354,-2.4576635360717773
1764634059680884700,5.358884765625,0.522595226764679,-1.3585642576217651,-2.3325889110565186
1764634059697627600,5.375627685546875,0.6183483600616455,-1.3698652982711792,-2.3406829833984375
1764634059714367000,5.392366943359375,0.7156286239624023,-1.4604260921478271,-2.3321306705474854
1764634059731119400,5.409119384765625,0.7840455174446106,-1.6154330968856812,-2.294257164001465
1764634059747867000,5.425866943359375,0.8683449625968933,-1.77975594997406,-2.2795963287353516
1764634059764596700,5.4425966796875,0.8895725011825562,-1.8280142545700073,-2.3469443321228027
1764634059781358800,5.45935888671875,0.8994990587234497,-1.7712037563323975,-2.3217461109161377
1764634059798105000,5.47610498046875,0.9902125597000122,-1.7075210809707642,-2.2658519744873047
1764634059814852600,5.4928525390625,1.0934487581253052,-1.6484198570251465,-2.2953262329101562
1764634059831587000,5.509587158203125,1.1494957208633423,-1.7847955226898193,-2.3125832080841064
1764634059848340500,5.526340576171875,1.1436924934387207,-2.0955731868743896,-2.154979944229126
1764634059865095000,5.543094970703125,1.11085844039917,-2.3272438049316406,-1.948354721069336
1764634059881838600,5.559838623046875,1.107040524482727,-2.285857677459717,-1.7617353200912476
1764634059898584000,5.576583984375,1.0806206464767456,-2.11283016204834,-1.8077030181884766
1764634059915330300,5.593330322265625,1.0479393005371094,-1.8861991167068481,-2.049452781677246
1764634059932077000,5.6100771484375,1.0062477588653564,-1.761582612991333,-2.208430528640747
1764634059948824600,5.626824462890625,0.9108000993728638,-1.7290540933609009,-2.2116377353668213
1764634059965572400,5.643572265625,0.8074111342430115,-1.706910252571106,-2.1875083446502686
1764634059982325800,5.66032568359375,0.8881980776786804,-1.6829338073730469,-2.1310033798217773
1764634059999080000,5.677079833984375,1.1226176023483276,-1.7197383642196655,-1.9343048334121704
1764634060015822800,5.69382275390625,1.2780828475952148,-1.82877779006958,-1.6279559135437012
1764634060032568800,5.71056884765625,1.263269305229187,-1.8194621801376343,-1.3785701990127563
1764634060049311700,5.727311767578125,1.1753047704696655,-1.6731599569320679,-1.2780828475952148
1764634060066064600,5.744064697265625,1.111163854598999,-1.505935549736023,-1.229824423789978
1764634060082809300,5.760809326171875,1.1192578077316284,-1.394299864768982,-1.1380419731140137
1764634060099552500,5.777552490234375,1.1362093687057495,-1.3350459337234497,-0.9976956844329834
1764634060116298500,5.794298583984375,1.1104003190994263,-1.288467526435852,-0.9001099467277527
1764634060133052700,5.811052734375,1.0960450172424316,-1.3312281370162964,-0.9439395070075989
1764634060149778200,5.827778076171875,1.0607675313949585,-1.4005613327026367,-0.9769262671470642
1764634060166540300,5.844540283203125,0.9769262671470642,-1.4095715284347534,-0.8142833709716797
1764634060183282700,5.86128271484375,0.9053022861480713,-1.3796391487121582,-0.49128836393356323
1764634060200038000,5.878037841796875,0.8570439219474792,-1.2038626670837402,-0.2577851414680481
1764634060216781000,5.894781005859375,0.8290968537330627,-0.9673051238059998,-0.2168571650981903
1764634060233510700,5.9115107421875,0.8239045143127441,-0.7657195925712585,-0.2742784917354584
1764634060250245000,5.9282451171875,0.8063421249389648,-0.6256787180900574,-0.3243694305419922
1764634060267006500,5.94500634765625,0.7715228199958801,-0.5771149396896362,-0.385303258895874
1764634060283754200,5.961754150390625,0.755793035030365,-0.5218316316604614,-0.4524984359741211
1764634060300499200,5.978499267578125,0.7310529947280884,-0.46761733293533325,-0.48808133602142334
1764634060317241900,5.995241943359375,0.6801984310150146,-0.44425174593925476,-0.4311181604862213
1764634060334002200,6.012002197265625,0.6663012504577637,-0.5126686692237854,-0.3220787048339844
1764634060350740000,6.028739990234375,0.641255795955658,-0.6441574096679688,-0.1797471046447754
1764634060367485200,6.045485107421875,0.607810914516449,-0.7699956297874451,-0.03894266113638878
1764634060384222700,6.06222265625,0.5998696684837341,-0.8345946669578552,0.019853120669722557
1764634060400961800,6.0789619140625,0.6131559610366821,-0.822682797908783,0.018478672951459885
1764634060417725700,6.0957255859375,0.6343835592269897,-0.7438811659812927,-0.020922135561704636
1764634060434471200,6.11247119140625,0.5890268087387085,-0.3790418803691864,-0.18387043476104736
1764634060451218000,6.129218017578125,0.38117989897727966,0.21365012228488922,-0.4434881806373596
1764634060467964400,6.14596435546875,0.12767083942890167,0.41172316670417786,-0.43249258399009705
1764634060484711700,6.162711669921875,-0.08399397134780884,0.19028452038764954,-0.17073683440685272
1764634060501457200,6.17945703125,-0.18814650177955627,-0.054367005825042725,0.1082758679986
1764634060518199800,6.19619970703125,-0.18967366218566895,-0.058795779943466187,0.18997909128665924
1764634060534954000,6.2129541015625,-0.15515977144241333,0.06444628536701202,0.1212567538022995
1764634060551697700,6.22969775390625,-0.12568552792072296,0.18631389737129211,0.036041051149368286
1764634060568443100,6.246443115234375,-0.11163562536239624,0.20815233886241913,-0.01038470957428217
1764634060585185500,6.263185546875,-0.10033461451530457,0.17776179313659668,-0.012675453908741474
1764634060601962200,6.279962158203125,-0.08765916526317596,0.09834930300712585,0.02825251780450344
1764634060618690300,6.296690185546875,-0.07987063378095627,-0.032681290060281754,0.08460483700037003
1764634060635442400,6.3134423828125,-0.08475755155086517,-0.0734565481543541,0.11789698898792267
1764634060652188700,6.330188720703125,-0.11255192011594772,-0.03405573591589928,0.1443169116973877
1764634060668931600,6.346931640625,-0.16294831037521362,0.05146539583802223,0.15164729952812195
1764634060685665800,6.363665771484375,-0.2292271852493286,0.17348572611808777,0.11484266817569733
1764634060702418700,6.380418701171875,-0.31871894001960754,0.3237585723400116,0.060475658625364304
1764634060719161600,6.39716162109375,-0.39064833521842957,0.47051894664764404,0.0328340083360672
1764634060735904000,6.413904052734375,-0.42439863085746765,0.5392413139343262,0.031154127791523933
1764634060752659200,6.4306591796875,-0.4346306324005127,0.531758189201355,0.06520986557006836
1764634060769401000,6.447401123046875,-0.43799036741256714,0.5111414790153503,0.12461651116609573
1764634060786143200,6.464143310546875,-0.44196099042892456,0.5010622143745422,0.18219055235385895
1764634060802897700,6.480897705078125,-0.44364088773727417,0.4508185386657715,0.17699819803237915
1764634060819641300,6.497641357421875,-0.45265114307403564,0.4248567819595337,0.14126259088516235
1764634060836366300,6.514366455078125,-0.47571131587028503,0.4586070775985718,0.12018773704767227
1764634060853137200,6.53113720703125,-0.536797821521759,0.5655084848403931,0.1466076523065567
1764634060869863200,6.54786328125,-0.6218608021736145,0.6969972252845764,0.19532416760921478
1764634060886624800,6.564624755859375,-0.6808093190193176,0.7365507483482361,0.25305092334747314
1764634060903376600,6.581376708984375,-0.7257078886032104,0.7108944058418274,0.36911532282829285
1764634060920116000,6.598115966796875,-0.8150469660758972,0.7189884185791016,0.5357288122177124
1764634060936849400,6.614849365234375,-0.9918924570083618,0.8454375267028809,0.6927211880683899
1764634060953618200,6.6316181640625,-1.1794281005859375,1.0615310668945312,0.9109528064727783
1764634060970358800,6.64835888671875,-1.3836097717285156,1.412778615951538,1.1779009103775024
1764634060987101400,6.665101318359375,-1.543809175491333,1.7718145847320557,1.3701707124710083
1764634061003855400,6.68185546875,-1.633148193359375,2.080148935317993,1.4692835807800293
1764634061020599300,6.698599365234375,-1.637271523475647,2.1978931427001953,1.5616769790649414
1764634061037344500,6.715344482421875,-1.5642731189727783,2.073582172393799,1.7756325006484985
1764634061054091000,6.732091064453125,-1.4715744256973267,1.8066339492797852,2.0775527954101562
1764634061070837800,6.748837646484375,-1.4152220487594604,1.5847371816635132,2.3238840103149414
1764634061087581200,6.765581298828125,-1.3643674850463867,1.5332717895507812,2.4552202224731445
1764634061104334600,6.78233447265625,-1.3040446043014526,1.5812246799468994,2.5031731128692627
1764634061121077000,6.799076904296875,-1.2823588848114014,1.653001308441162,2.574186086654663
1764634061137835000,6.8158349609375,-1.2731958627700806,1.665065884590149,2.668564796447754
1764634061154588700,6.832588623046875,-1.2932016849517822,1.5894713401794434,2.7209465503692627
1764634061171313400,6.8493134765625,-1.315956473350525,1.6067283153533936,2.7349963188171387
1764634061188063000,6.86606298828125,-1.300837516784668,1.747685432434082,2.6787967681884766
1764634061204809500,6.8828095703125,-1.2693779468536377,1.9121609926223755,2.63496732711792
1764634061221557000,6.899556884765625,-1.3017538785934448,2.0693061351776123,2.5810582637786865
1764634061238302200,6.91630224609375,-1.3631458282470703,2.2099578380584717,2.517833709716797
1764634061255049500,6.933049560546875,-1.3507757186889648,2.29440975189209,2.518444776535034
1764634061271795500,6.94979541015625,-1.2515101432800293,2.280665397644043,2.5083653926849365
1764634061288542700,6.966542724609375,-1.1120802164077759,2.247525930404663,2.562885046005249
1764634061305288400,6.983288330078125,-1.0005972385406494,2.2041544914245605,2.652682304382324
1764634061322031000,7.000031005859375,-0.8504771590232849,2.1893410682678223,2.64611554145813
1764634061338785000,7.016784912109375,-0.7267768979072571,2.238515615463257,2.6222918033599854
1764634061355529000,7.033529052734375,-0.6223189830780029,2.2792909145355225,2.6400067806243896
1764634061372274400,7.0502744140625,-0.5635231733322144,2.1704041957855225,2.6067147254943848
1764634061389020700,7.067020751953125,-0.5502368807792664,1.9356791973114014,2.5250115394592285
1764634061405764000,7.08376416015625,-0.5250386595726013,1.7327193021774292,2.3832907676696777
1764634061422524000,7.10052392578125,-0.4830417037010193,1.6036739349365234,2.1981985569000244
1764634061439270400,7.1172705078125,-0.3966042697429657,1.4873042106628418,1.9813414812088013
1764634061456019700,7.134019775390625,-0.30604347586631775,1.3800972700119019,1.816102385520935
1764634061472765700,7.150765625,-0.247094988822937,1.3032809495925903,1.7889188528060913
1764634061489508900,7.1675087890625,-0.22388210892677307,1.2260065078735352,1.788002610206604
1764634061506263600,7.184263671875,-0.19135354459285736,1.1586586236953735,1.7212655544281006
1764634061523005400,7.20100537109375,-0.15103642642498016,1.0427470207214355,1.5906931161880493
1764634061539733200,7.217733154296875,-0.09437867999076843,0.8758280277252197,1.4231632947921753
1764634061556500000,7.2345,-0.009468411095440388,0.6305656433105469,1.272737741470337
1764634061576492800,7.254492919921875,0.10522153973579407,0.47082439064979553,1.214400053024292
1764634061589888800,7.267888671875,0.1615738570690155,0.4625777006149292,1.165378212928772
1764634061606726100,7.28472607421875,0.24587325751781464,0.4642575979232788,1.0616837739944458
1764634061623472600,7.30147265625,0.32009339332580566,0.417679101228714,0.936609148979187
1764634061640218000,7.318218017578125,0.3110831379890442,0.26083946228027344,0.8411614298820496
1764634061656964400,7.33496435546875,0.27091872692108154,0.08216137439012527,0.7293730974197388
1764634061673710800,7.3517109375,0.21074850857257843,-0.12140946835279465,0.5908594131469727
1764634061690458600,7.368458740234375,0.09422596544027328,-0.2015855312347412,0.5021312236785889
1764634061707220700,7.385220703125,-0.012980886735022068,-0.09972374886274338,0.37659841775894165
1764634061723958000,7.4019580078125,-0.060475658625364304,0.07483099400997162,0.2422080636024475
1764634061740722000,7.418721923828125,-0.05772676691412926,0.16081027686595917,0.13209961354732513
1764634061757441500,7.435441650390625,-0.04657847434282303,0.0659734457731247,0.046273041516542435
1764634061774189800,7.45218994140625,-0.0734565481543541,-0.22602014243602753,-0.014813481830060482
1764634061790936600,7.4689365234375,-0.08491026610136032,-0.48380526900291443,-0.02122756652534008
1764634061807682600,7.4856826171875,-0.06154467165470123,-0.5583308339118958,-0.04214970022439957
1764634061824430600,7.5024306640625,-0.04566217586398125,-0.43279802799224854,-0.08949175477027893
1764634061841176000,7.519176025390625,-0.06276640295982361,-0.22159136831760406,-0.1264491081237793
1764634061857918500,7.53591845703125,-0.0731511116027832,-0.1417207419872284,-0.17928895354270935
1764634061874672400,7.55267236328125,-0.0809396430850029,-0.15806138515472412,-0.2590068578720093
1764634061891416300,7.569416259765625,-0.062460970133543015,-0.1647808998823166,-0.3332269787788391
1764634061908158000,7.586157958984375,-0.04856378585100174,-0.13255776464939117,-0.36010506749153137
1764634061924912000,7.602912109375,-0.03298672288656235,-0.027641652151942253,-0.327729195356369
1764634061941654500,7.619654541015625,-0.0010690141934901476,0.10415252298116684,-0.28725937008857727
1764634061958404600,7.636404541015625,0.05161811411380768,0.16920967400074005,-0.3196352422237396
1764634061975155500,7.653155517578125,0.08888089656829834,0.1033889427781105,-0.40714168548583984
1764634061991907000,7.669906982421875,0.08277224004268646,-0.11911872029304504,-0.5259549617767334
1764634062008637400,7.686637451171875,0.051312681287527084,-0.3139847218990326,-0.6499606370925903
1764634062025380000,7.703380126953125,0.02015855349600315,-0.3732386529445648,-0.7646505832672119
1764634062042118700,7.72011865234375,0.025045474991202354,-0.3113885521888733,-0.9101892113685608
1764634062058880000,7.7368798828125,0.040622539818286896,-0.2968805134296417,-1.1591167449951172
1764634062075626200,7.753626220703125,-0.005192354787141085,-0.46761733293533325,-1.4372131824493408
1764634062092358700,7.770358642578125,-0.04138612002134323,-0.8235990405082703,-1.673770785331726
1764634062109136000,7.787135986328125,0.015577063895761967,-1.0716103315353394,-1.833817481994629
1764634062125874000,7.8038740234375,0.13286319375038147,-1.1094839572906494,-1.9191858768463135
1764634062142627000,7.820626953125,0.21563543379306793,-1.0112874507904053,-1.934457540512085
1764634062159354000,7.83735400390625,0.2298380434513092,-0.9749409556388855,-1.8975001573562622
1764634062176114400,7.854114501953125,0.2122756689786911,-1.1873693466186523,-1.878868818283081
1764634062192862000,7.870862060546875,0.28527405858039856,-1.3574953079223633,-2.018604278564453
1764634062209595100,7.88759521484375,0.34345898032188416,-1.43751859664917,-2.2600486278533936
1764634062226330000,7.904330078125,0.4153883755207062,-1.352608323097229,-2.4274258613586426
1764634062243096300,7.921096435546875,0.4671591818332672,-1.3242031335830688,-2.381305456161499
1764634062259837700,7.937837646484375,0.5583308339118958,-1.482264518737793,-2.135279417037964
1764634062276584200,7.954584228515625,0.6151412725448608,-1.679421305656433,-2.0951151847839355
1764634062293317600,7.971317626953125,0.6583600044250488,-1.6252069473266602,-2.2800545692443848
1764634062310062000,7.98806201171875,0.6229298114776611,-1.45004141330719,-2.44254469871521
1764634062326823700,8.00482373046875,0.585667073726654,-1.4062118530273438,-2.451555013656616
1764634062343570200,8.021570068359376,0.5752823352813721,-1.4631749391555786,-2.3748912811279297
1764634062360301600,8.038301513671875,0.5516113042831421,-1.4268285036087036,-2.436894178390503
1764634062377063400,8.0550634765625,0.5338962078094482,-1.3060299158096313,-2.549293279647827
1764634062393784600,8.07178466796875,0.5830708742141724,-1.1714868545532227,-2.694221258163452
1764634062410557000,8.088556884765625,0.6537785530090332,-1.1244502067565918,-2.7852401733398438
1764634062427298800,8.105298828125,0.7101308703422546,-1.1478158235549927,-2.7840182781219482
1764634062444049000,8.122048828125,0.7053966522216797,-1.328937292098999,-2.688417911529541
1764634062460795400,8.13879541015625,0.7484626173973083,-1.4558446407318115,-2.5718953609466553
1764634062477537000,8.155537109375,0.8150469660758972,-1.5248724222183228,-2.5021040439605713
1764634062494284300,8.1722841796875,0.808174729347229,-1.4928019046783447,-2.5101981163024902
1764634062511035100,8.18903515625,0.7809911966323853,-1.3823879957199097,-2.520277261734009
1764634062527781400,8.205781494140625,0.7820602059364319,-1.4278974533081055,-2.3629794120788574
1764634062544528000,8.22252783203125,0.7597636580467224,-1.5974125862121582,-2.141540765762329
1764634062561275600,8.239275634765624,0.7852672934532166,-1.662164330482483,-1.9475910663604736
1764634062578032600,8.25603271484375,0.7615962624549866,-1.5777121782302856,-1.8781051635742188
1764634062594784800,8.27278466796875,0.7354817390441895,-1.4776830673217773,-1.7573065757751465
1764634062611510500,8.289510498046875,0.671493649482727,-1.4439327716827393,-1.4938709735870361
1764634062628258800,8.3062587890625,0.6632469296455383,-1.3869695663452148,-1.2597568035125732
1764634062645006600,8.323006591796876,0.6676757335662842,-1.3826935291290283,-1.2373075485229492
1764634062661753300,8.33975341796875,0.6730207800865173,-1.3034337759017944,-1.4399621486663818
1764634062678500900,8.3565009765625,0.6624833345413208,-1.3480268716812134,-1.528690218925476
1764634062695247000,8.3732470703125,0.6155994534492493,-1.5497651100158691,-1.2754865884780884
1764634062712004900,8.3900048828125,0.5477933883666992,-1.8585574626922607,-0.8000807762145996
1764634062728753200,8.406753173828125,0.5229006409645081,-2.001041889190674,-0.34116822481155396
1764634062745473800,8.423473876953125,0.6018549799919128,-1.8988746404647827,-0.1598939746618271
1764634062762233300,8.4402333984375,0.6995934247970581,-1.6311628818511963,-0.24785856902599335
1764634062778978800,8.456978759765626,0.7646505832672119,-1.3292428255081177,-0.43875396251678467
1764634062795725000,8.47372509765625,0.7777841687202454,-1.1371256113052368,-0.5894849896430969
1764634062812471600,8.490471435546874,0.7409795522689819,-1.0231993198394775,-0.6745479702949524
1764634062829227300,8.507227294921876,0.6362161636352539,-0.9427177906036377,-0.6792821288108826
1764634062845960400,8.52396044921875,0.5534439086914062,-0.8874344825744629,-0.5842925906181335
1764634062862715000,8.54071484375,0.5679519772529602,-0.8903360962867737,-0.44455718994140625
1764634062879457500,8.55745751953125,0.6649268269538879,-0.8947648406028748,-0.3400992155075073
1764634062904580400,8.582580322265626,0.7099781036376953,-0.7782423496246338,-0.26190847158432007
1764634062921337900,8.599337890625,0.6563746929168701,-0.7096726894378662,-0.2681698501110077
1764634062938067200,8.616067138671875,0.5726861953735352,-0.6368269920349121,-0.26022860407829285
1764634062954817800,8.63281787109375,0.4873177409172058,-0.5451972484588623,-0.23808473348617554
1764634062971563300,8.649563232421874,0.44318273663520813,-0.44593164324760437,-0.18341228365898132
1764634062988310500,8.666310546875,0.41004329919815063,-0.34636059403419495,-0.12797626852989197
1764634063005056000,8.683055908203125,0.39095374941825867,-0.27122417092323303,-0.09865473955869675
1764634063021803500,8.699803466796874,0.38148534297943115,-0.20463985204696655,-0.0835358202457428
1764634063038549200,8.71654931640625,0.39064833521842957,-0.18417587876319885,-0.08002334833145142
1764634063055296800,8.733296875,0.4167627990245819,-0.20876319706439972,-0.09468411654233932
1764634063072042200,8.750042236328126,0.41951170563697815,-0.24648413062095642,-0.14004085958003998
1764634063088789800,8.766789794921875,0.3608686327934265,-0.27641651034355164,-0.16340644657611847
1764634063105530400,8.7835302734375,0.28557950258255005,-0.3335324227809906,-0.1417207419872284
1764634063122303000,8.800302978515624,0.2590068578720093,-0.40775254368782043,-0.0754418596625328
1764634063139041000,8.817041015625,0.27809640765190125,-0.47189339995384216,0.00015271631127689034
1764634063155788300,8.833788330078125,0.30512720346450806,-0.4902193546295166,0.01863138936460018
1764634063172533800,8.85053369140625,0.28695395588874817,-0.4558582007884979,-0.019089538604021072
1764634063189281500,8.867281494140625,0.20402899384498596,-0.39064833521842957,-0.0731511116027832
1764634063206023400,8.8840234375,0.0832303911447525,-0.32162055373191833,-0.10965031385421753
1764634063222761500,8.900761474609375,-0.041691552847623825,-0.22342395782470703,-0.08139779418706894
1764634063239506700,8.917506591796876,-0.13301590085029602,-0.05604688450694084,-0.05604688450694084
1764634063256254500,8.93425439453125,-0.19868391752243042,0.1667662113904953,-0.023518312722444534
1764634063273000000,8.951,-0.25702154636383057,0.35659259557724,0.009010262787342072
1764634063289732000,8.967732177734375,-0.36911532282829285,0.48640143871307373,0.044745877385139465
1764634063306493000,8.984492919921875,-0.5143485069274902,0.5983424782752991,0.09789115190505981
1764634063323240400,9.001240478515625,-0.641255795955658,0.7590000629425049,0.1137736514210701
1764634063339985700,9.017985595703125,-0.7293730974197388,0.9682214260101318,0.10567969083786011
1764634063356733200,9.034733154296875,-0.7808384895324707,1.1406381130218506,0.09178250283002853
1764634063373495000,9.0514951171875,-0.7974845767021179,1.214400053024292,0.10384709388017654
1764634063390235100,9.068235107421875,-0.8028296232223511,1.1598803997039795,0.15042556822299957
1764634063406986000,9.084986083984376,-0.7895433306694031,0.9755517840385437,0.23915374279022217
1764634063423719400,9.101719482421874,-0.7638869881629944,0.7982481718063354,0.370947927236557
1764634063440461800,9.1184619140625,-0.7470881938934326,0.6407976150512695,0.5390886068344116
1764634063457215000,9.135215087890625,-0.7283040881156921,0.5340489149093628,0.6855435371398926
1764634063473957600,9.15195751953125,-0.6991352438926697,0.5578727126121521,0.7910705208778381
1764634063490702000,9.1687021484375,-0.6944010853767395,0.6389650702476501,0.9393580555915833
1764634063507457300,9.185457275390625,-0.697149932384491,0.6527095437049866,1.1406381130218506
1764634063524210700,9.202210693359374,-0.7588473558425903,0.6721044778823853,1.347110629081726
1764634063540956200,9.2189560546875,-0.8475755453109741,0.6710354685783386,1.4877623319625854
1764634063557704200,9.2357041015625,-0.9271407127380371,0.7542658448219299,1.5613715648651123
1764634063574449200,9.25244921875,-0.9946413636207581,0.9063712954521179,1.6464345455169678
1764634063591198500,9.269198486328126,-1.0800096988677979,1.0103710889816284,1.819003939628601
1764634063607919600,9.285919677734375,-1.1678216457366943,1.1218540668487549,1.9440786838531494
1764634063624677000,9.302677001953125,-1.2348641157150269,1.3596333265304565,1.9181169271469116
1764634063641420800,9.3194208984375,-1.2826642990112305,1.540907621383667,1.8654297590255737
1764634063658171600,9.336171630859376,-1.313665747642517,1.5317445993423462,1.9511035680770874
1764634063674915300,9.352915283203124,-1.3092368841171265,1.3243558406829834,2.154827117919922
1764634063691663000,9.3696630859375,-1.294118046760559,1.036943793296814,2.372447967529297
1764634063708411600,9.38641162109375,-1.2844969034194946,0.9077457785606384,2.4853053092956543
1764634063725152800,9.40315283203125,-1.3003793954849243,1.0302242040634155,2.4911084175109863
1764634063741901300,9.4199013671875,-1.3423763513565063,1.1969904899597168,2.4381158351898193
1764634063758649000,9.436649169921875,-1.3574953079223633,1.2857186794281006,2.409710645675659
1764634063775394600,9.45339453125,-1.3107640743255615,1.3116804361343384,2.4726297855377197
1764634063792141800,9.470141845703125,-1.2498302459716797,1.3130548000335693,2.509281635284424
1764634063808887600,9.486887451171874,-1.1921035051345825,1.2376129627227783,2.5579981803894043
1764634063825631700,9.5036318359375,-1.1679743528366089,1.1840095520019531,2.663067102432251
1764634063842383000,9.520383056640625,-1.1574369668960571,1.163851022720337,2.691319465637207
1764634063859128000,9.537128173828124,-1.1595749855041504,1.2397509813308716,2.6229026317596436
1764634063875874800,9.553874755859376,-1.1455250978469849,1.3710870742797852,2.5395195484161377
1764634063892619300,9.570619384765624,-1.127810001373291,1.4906638860702515,2.4416284561157227
1764634063909369600,9.58736962890625,-1.0279334783554077,1.5703818798065186,2.3377811908721924
1764634063926126600,9.604126708984374,-0.9115636348724365,1.5526667833328247,2.1419990062713623
1764634063942871800,9.620871826171875,-0.8558222055435181,1.508837103843689,1.9908097982406616
1764634063959619800,9.637619873046875,-0.875064492225647,1.4552336931228638,1.9399553537368774
1764634063976365800,9.65436572265625,-0.8671231865882874,1.4535537958145142,1.9773707389831543
1764634063993112600,9.671112548828125,-0.7925976514816284,1.487609624862671,1.9839376211166382
1764634064009863400,9.687863525390625,-0.6840163469314575,1.5557210445404053,1.9541579484939575
1764634064026594800,9.7045947265625,-0.5946773290634155,1.6265814304351807,1.8839083909988403
1764634064043338200,9.721338134765626,-0.5002986192703247,1.5827518701553345,1.7513506412506104
1764634064060085800,9.738085693359375,-0.4103487432003021,1.394452691078186,1.6238325834274292
1764634064085204500,9.76320458984375,-0.28695395588874817,1.1282681226730347,1.7186694145202637
1764634064101952000,9.779951904296874,-0.2142609804868698,0.9390525817871094,1.80037260055542
1764634064118706700,9.796706787109375,-0.13515393435955048,0.8057312369346619,1.7548631429672241
1764634064135427800,9.813427734375,-0.09269879758358002,0.7379252314567566,1.5567901134490967
1764634064152195800,9.83019580078125,-0.0757472887635231,0.7544185519218445,1.3103059530258179
1764634064168938000,9.84693798828125,-0.07360926270484924,0.7751879692077637,1.049619197845459
1764634064185679600,9.8636796875,-0.11255192011594772,0.792750358581543,0.8252789378166199
1764634064202432300,9.880432373046874,-0.14614951610565186,0.6708827614784241,0.6362161636352539
1764634064219178200,9.89717822265625,-0.1595885455608368,0.4735732674598694,0.5177083015441895
1764634064235922200,9.913922119140626,-0.15790866315364838,0.3419318199157715,0.4915938079357147
1764634064252671000,9.9306708984375,-0.14767667651176453,0.30222558975219727,0.4763221740722656
1764634064269415700,9.947415771484375,-0.14019356667995453,0.304669052362442,0.41599923372268677
1764634064286159400,9.964159423828125,-0.1690569519996643,0.27748554944992065,0.34055736660957336
1764634064302912800,9.980912841796876,-0.20983220636844635,0.2551889419555664,0.327271044254303
1764634064319655200,9.9976552734375,-0.2076941877603531,0.2860376536846161,0.35964691638946533
1764634064336400400,10.014400390625,-0.17516560852527618,0.323147714138031,0.36071592569351196
1764634064353168000,10.03116796875,-0.14217889308929443,0.3654501438140869,0.3191770911216736
1764634064369866200,10.0478662109375,-0.10690141469240189,0.3501785099506378,0.25824329257011414
1764634064386658800,10.064658935546875,-0.07941248267889023,0.25961771607398987,0.2200642079114914
1764634064403391700,10.081391845703125,-0.06062837690114975,0.1699732542037964,0.19486601650714874
1764634064420139500,10.098139404296875,-0.06185010448098183,0.13255776464939117,0.14233160018920898
1764634064436881700,10.114881591796875,-0.04581489413976669,0.09896016865968704,0.06704246252775192
1764634064453627100,10.131627197265624,-0.02687807008624077,0.05345070734620094,0.0074830991216003895
1764634064470373600,10.14837353515625,-0.015118914656341076,0.009926560334861279,-0.03344487398862839
1764634064487120400,10.165120361328125,0.0074830991216003895,-0.09285151958465576,-0.09392052888870239
1764634064503867600,10.18186767578125,0.00427605677396059,-0.1788308024406433,-0.12263119965791702
1764634064520629500,10.19862939453125,-0.0039706239476799965,-0.1511891484260559,-0.10842858254909515
1764634064537373000,10.215373046875,-0.0019853119738399982,-0.058337632566690445,-0.0705549344420433
1764634064554114000,10.232114013671875,0.008704829961061478,0.08002334833145142,-0.03985895588994026
1764634064570854100,10.248854248046875,0.01878410577774048,0.18478673696517944,-0.06979135423898697
1764634064587612200,10.265612060546875,0.04245513305068016,0.22357667982578278,-0.156686931848526
1764634064604358700,10.282358642578124,0.057879481464624405,0.18829920887947083,-0.27519479393959045
1764634064621076000,10.299075927734375,0.06352998316287994,0.08231408894062042,-0.3712533414363861
1764634064637839600,10.315839599609374,0.0754418596625328,-0.02275473065674305,-0.4401284158229828
1764634064654584800,10.332584716796875,0.1036943718791008,-0.09773843735456467,-0.5114469528198242
1764634064671321000,10.349321044921876,0.13255776464939117,-0.17669276893138885,-0.6301075220108032
1764634064688078000,10.366078125,0.13408492505550385,-0.21578814089298248,-0.780380368232727
1764634064704825300,10.382825439453125,0.15012013912200928,-0.2912299931049347,-0.9468411207199097
1764634064721567700,10.399567626953125,0.152105450630188,-0.40454551577568054,-1.0334312915802002
1764634064738317300,10.4163173828125,0.16264286637306213,-0.48029279708862305,-1.0554224252700806
1764634064755062300,10.433062255859374,0.1973094791173935,-0.47769662737846375,-1.055269718170166
1764634064771806000,10.449805908203125,0.23548854887485504,-0.4335615932941437,-1.1003210544586182
1764634064788557000,10.46655712890625,0.24663683772087097,-0.41828998923301697,-1.20859694480896
1764634064805303300,10.48330322265625,0.24923302233219147,-0.5268712639808655,-1.3645201921463013
1764634064822052400,10.50005224609375,0.25824329257011414,-0.660192608833313,-1.4692835807800293
1764634064838797300,10.51679736328125,0.2747366428375244,-0.778853178024292,-1.5109752416610718
1764634064855542500,10.53354248046875,0.304210901260376,-0.7919867634773254,-1.5195273160934448
1764634064872273700,10.550273681640626,0.3494149148464203,-0.7055493593215942,-1.5280793905258179
1764634064889035800,10.567035888671874,0.4167627990245819,-0.5623014569282532,-1.5819882154464722
1764634064905784800,10.583784912109374,0.4662429094314575,-0.44593164324760437,-1.806328535079956
1764634064922526700,10.600526611328124,0.4605923891067505,-0.4323398768901825,-2.031890630722046
1764634064939288300,10.617288330078125,0.42348232865333557,-0.6724098920822144,-2.0564777851104736
1764634064956034300,10.634034423828124,0.45036038756370544,-0.9728028774261475,-1.9727892875671387
1764634064972782000,10.650781982421876,0.499382346868515,-1.0873401165008545,-1.988824486732483
1764634064989527600,10.667527587890625,0.5157229900360107,-0.9301950335502625,-2.0722076892852783
1764634065006274300,10.6842744140625,0.4980078935623169,-0.5653557777404785,-2.182468891143799
1764634065023004200,10.701004150390625,0.46043968200683594,-0.34895676374435425,-2.180330753326416
1764634065039755300,10.71775537109375,0.395077109336853,-0.5697845816612244,-2.101987361907959
1764634065056500500,10.73450048828125,0.3597996234893799,-0.8292495608329773,-2.211026668548584
1764634065073247000,10.7512470703125,0.36453384160995483,-0.932485818862915,-2.384512424468994
1764634065089993500,10.767993408203125,0.4306600093841553,-1.0027352571487427,-2.3292291164398193
1764634065106741000,10.784740966796875,0.5484042763710022,-1.2279918193817139,-1.9886717796325684
1764634065123486200,10.801486328125,0.6695083379745483,-1.3947581052780151,-1.8234328031539917
1764634065140233000,10.81823291015625,0.7292203903198242,-1.334587812423706,-2.066404342651367
1764634065156973800,10.834973876953125,0.6973026990890503,-1.096961259841919,-2.5187501907348633
1764634065167643400,10.845643310546874,0.6427829265594482,-0.8762862086296082,-2.6960537433624268
1764634065182107000,10.86010693359375,0.5598580241203308,-0.7738135457038879,-2.596788167953491
1764634065198846500,10.876846435546875,0.5163338780403137,-0.8118399381637573,-2.2348504066467285
1764634065215586800,10.8935869140625,0.5384777188301086,-0.7290676832199097,-2.0089831352233887
1764634065232339500,10.91033935546875,0.5361869931221008,-0.617584764957428,-1.9938641786575317
1764634065249081000,10.9270810546875,0.5372560024261475,-0.5717698931694031,-1.9981402158737183
1764634065265835800,10.943835693359375,0.5502368807792664,-0.598953366279602,-2.004707098007202
1764634065282562300,10.960562255859376,0.5497786998748779,-0.7162395119667053,-1.9814941883087158
1764634065299325400,10.977325439453125,0.4694499373435974,-0.9917397499084473,-1.8493945598602295
1764634065316067600,10.994067626953125,0.42638394236564636,-1.235169529914856,-1.739438772201538
1764634065332818700,11.010818603515625,0.38988474011421204,-1.1633929014205933,-1.810146450996399
1764634065349560300,11.027560302734376,0.3397938013076782,-0.9805914163589478,-1.8571830987930298
1764634065366328300,11.044328369140626,0.31322115659713745,-0.860556423664093,-1.7854063510894775
1764634065383071000,11.061071044921874,0.2977968156337738,-0.9469938278198242,-1.513113260269165
1764634065399817200,11.077817138671875,0.31383201479911804,-1.1814134120941162,-1.2098186016082764
1764634065416558600,11.09455859375,0.3367394804954529,-1.332755208015442,-1.0346530675888062
1764634065433315600,11.111315673828125,0.38835757970809937,-1.381929874420166,-0.9692904353141785
1764634065450034400,11.128034423828124,0.46242499351501465,-1.3213015794754028,-0.9376781582832336
1764634065466790700,11.144790771484375,0.5369505286216736,-1.2319624423980713,-0.8245153427124023
1764634065483535600,11.16153564453125,0.5890268087387085,-1.1916453838348389,-0.7232644557952881
1764634065500283400,11.178283447265626,0.6495024561882019,-1.2107349634170532,-0.7472409009933472
1764634065517013200,11.19501318359375,0.6640105247497559,-1.1354458332061768,-0.8666650652885437
1764634065533776400,11.2117763671875,0.6097962260246277,-0.9897544384002686,-0.9060658812522888
1764634065550521300,11.228521240234375,0.5583308339118958,-0.8118399381637573,-0.7787004709243774
1764634065567273500,11.2452734375,0.580016553401947,-0.6947064995765686,-0.5836817622184753
1764634065584042500,11.26204248046875,0.6806566119194031,-0.7250970602035522,-0.47739118337631226
1764634065600775000,11.27877490234375,0.7733554244041443,-0.8008443117141724,-0.47678032517433167
1764634065617516300,11.295516357421874,0.8171849846839905,-0.902553379535675,-0.5258022546768188
1764634065634273000,11.31227294921875,0.7999280095100403,-0.9428704977035522,-0.5832235813140869
1764634065651014400,11.329014404296874,0.7564038634300232,-0.8996517658233643,-0.645684540271759
1764634065667761400,11.345761474609375,0.7304421067237854,-0.8452847599983215,-0.6956228017807007
1764634065684501800,11.362501708984375,0.7267768979072571,-0.8110763430595398,-0.7574729323387146
1764634065701243000,11.379242919921875,0.799011766910553,-0.8023715019226074,-0.8309294581413269
1764634065717986800,11.39598681640625,0.9477574229240417,-0.8326093554496765,-0.9159924387931824
1764634065734733800,11.41273388671875,1.0106765031814575,-0.921795666217804,-0.927446186542511
1764634065751479800,11.429479736328124,1.0094548463821411,-1.1134545803070068,-0.8150469660758972
1764634065768227000,11.44622705078125,1.015868902206421,-1.3350459337234497,-0.6122397184371948
1764634065784972500,11.46297265625,1.0254900455474854,-1.531133770942688,-0.3978259861469269
1764634065801736000,11.47973583984375,1.0729848146438599,-1.6143641471862793,-0.21242839097976685
1764634065818473700,11.4964736328125,1.1381946802139282,-1.4204144477844238,-0.13271047174930573
1764634065835231200,11.513231201171875,1.0005972385406494,-1.0436632633209229,-0.1391245573759079
1764634065851971600,11.5299716796875,0.7941248416900635,-0.6913467645645142,-0.18066339194774628
1764634065868716300,11.54671630859375,0.588874101638794,-0.4524984359741211,-0.1941024363040924
1764634065885451300,11.563451171875,0.39354994893074036,-0.35063666105270386,-0.11194105446338654
1764634065902199000,11.580198974609376,0.20631973445415497,-0.30634891986846924,0.06261368840932846
1764634065918939600,11.596939697265626,0.07192938029766083,-0.29886582493782043,0.16401731967926025
1764634065935696400,11.6136962890625,-0.0027488935738801956,-0.2590068578720093,0.11850785464048386
1764634065952432600,11.6304326171875,-0.06872233748435974,-0.14126259088516235,-0.021380282938480377
1764634065969198800,11.64719873046875,-0.10461067408323288,-0.014049900695681572,-0.1618792861700058
1764634065985932800,11.663932861328124,-0.09575312584638596,0.041691552847623825,-0.23411411046981812
1764634066002695400,11.6806953125,-0.051770828664302826,-0.0010690141934901476,-0.21533000469207764
1764634066019432000,11.697431884765624,0.005955935921519995,-0.11682797968387604,-0.1518000066280365
1764634066036183000,11.71418310546875,0.048716504126787186,-0.23655757308006287,-0.11835514008998871
1764634066052934700,11.7309345703125,0.07895433157682419,-0.3084869384765625,-0.12858712673187256
1764634066069670100,11.747670166015626,0.10094548016786575,-0.21441370248794556,-0.2015855312347412
1764634066086413000,11.7644130859375,0.09346238523721695,0.14156801998615265,-0.3897320330142975
1764634066103151400,11.7811513671875,0.07147123664617538,0.42928555607795715,-0.4717406928539276
1764634066119904000,11.797904052734374,0.044745877385139465,0.39767327904701233,-0.33078351616859436
1764634066136653600,11.814653564453126,0.014049900695681572,0.12507465481758118,-0.11621711403131485
1764634066153395700,11.831395751953124,-0.0074830991216003895,-0.05421429127454758,0.026419922709465027
1764634066170141400,11.848141357421875,0.03848451003432274,-0.05619960278272629,0.09911288321018219
1764634066186889700,11.8648896484375,0.10064005106687546,-0.038637228310108185,0.17256943881511688
1764634066203636000,11.881635986328124,0.1485929638147354,-0.06612616032361984,0.22602014243602753
1764634066220377300,11.89837744140625,0.19349156320095062,-0.0679587572813034,0.23457226157188416
1764634066237128700,11.915128662109375,0.22342395782470703,-0.0455094613134861,0.1996002197265625
1764634066253878300,11.931878173828125,0.25641068816185,-0.02428189292550087,0.15286903083324432
1764634066270621700,11.94862158203125,0.2623666226863861,-0.05253441259264946,0.11713340878486633
1764634066287367400,11.965367431640624,0.22143864631652832,-0.06261368840932846,0.08078692853450775
1764634066304125200,11.982125244140626,0.15317445993423462,-0.026419922709465027,0.015577063895761967
1764634066320878600,11.998878662109375,0.06627888232469559,0.023365596309304237,-0.060933809727430344
1764634066337621200,12.015621337890625,-0.018020525574684143,0.04764748737215996,-0.12767083942890167
1764634066354365700,12.03236572265625,-0.08384125679731369,0.04230241850018501,-0.1586722433567047
1764634066371113200,12.04911328125,-0.14019356667995453,0.009468411095440388,-0.1189660057425499
1764634066387859500,12.065859375,-0.16829337179660797,-0.029474247246980667,-0.021991148591041565
1764634066404607000,12.08260693359375,-0.15851953625679016,-0.09392052888870239,0.10949759185314178
1764634066421347000,12.09934716796875,-0.15332718193531036,-0.1739438772201538,0.33307427167892456
1764634066438104000,12.11610400390625,-0.1440114825963974,-0.30253100395202637,0.6221662759780884
1764634066454845200,12.13284521484375,-0.12828169763088226,-0.242513507604599,0.82207190990448
1764634066471588000,12.149588134765626,-0.18616119027137756,0.1033889427781105,0.7735081315040588
1764634066488342800,12.1663427734375,-0.31352660059928894,0.4977024495601654,0.5699372887611389
1764634066505085400,12.18308544921875,-0.48487427830696106,0.8174903988838196,0.39324450492858887
1764634066521827600,12.19982763671875,-0.6681338548660278,0.9224064946174622,0.408363401889801
1764634066538582500,12.21658251953125,-0.8127561807632446,0.8930850028991699,0.6006332635879517
1764634066555324000,12.233323974609375,-0.903164267539978,0.8240572214126587,0.8078693151473999
1764634066572071200,12.2500712890625,-0.9584475755691528,0.8132143616676331,0.9598219990730286
1764634066588814000,12.26681396484375,-1.0531316995620728,0.907898485660553,1.0418306589126587
1764634066605549800,12.2835498046875,-1.1921035051345825,1.115287184715271,1.0998629331588745
1764634066622298600,12.300298583984375,-1.335809588432312,1.238223910331726,1.1945469379425049
1764634066639044900,12.317044921875,-1.374599575996399,1.0711522102355957,1.3193162679672241
1764634066655790000,12.3337900390625,-1.397354245185852,0.755793035030365,1.5326608419418335
1764634066672537600,12.35053759765625,-1.462716817855835,0.5535966157913208,1.8095356225967407
1764634066689283300,12.367283447265624,-1.494939923286438,0.7238753437995911,1.9857702255249023
1764634066706030300,12.3840302734375,-1.4937182664871216,1.1520918607711792,2.0451767444610596
1764634066722775800,12.40077587890625,-1.5080735683441162,1.524566888809204,2.0838141441345215
1764634066739521800,12.417521728515625,-1.539380431175232,1.5908458232879639,2.15849232673645
1764634066756269000,12.43426904296875,-1.5771013498306274,1.4637858867645264,2.2824978828430176
1764634066773016300,12.451016357421874,-1.6105462312698364,1.2809844017028809,2.4657576084136963
1764634066789756700,12.467756591796874,-1.6563611030578613,1.1352930068969727,2.6792550086975098
1764634066806509600,12.484509521484375,-1.6806429624557495,1.0850493907928467,2.8316657543182373
1764634066823255000,12.501255126953126,-1.645671010017395,1.189354658126831,2.825251817703247
1764634066840006100,12.518006103515624,-1.6064229011535645,1.5599970817565918,2.761263608932495
1764634066856747800,12.534747802734374,-1.618945598602295,1.8484781980514526,2.6894869804382324
1764634066873495600,12.55149560546875,-1.6223053932189941,1.8671096563339233,2.7589728832244873
1764634066890243800,12.568243896484375,-1.5961909294128418,1.6407840251922607,2.9093985557556152
1764634066907001600,12.585001708984375,-1.5697709321975708,1.405600905418396,2.9802587032318115
1764634066923746300,12.601746337890624,-1.516931176185608,1.3267992734909058,2.9575040340423584
1764634066940494300,12.618494384765626,-1.3862059116363525,1.3396275043487549,2.8936686515808105
1764634066957223400,12.635223388671875,-1.292590856552124,1.373377799987793,2.8009698390960693
1764634066973974000,12.65197412109375,-1.256244421005249,1.3956743478775024,2.682461977005005
1764634066990719700,12.6687197265625,-1.19912850856781,1.3413074016571045,2.5697574615478516
1764634067007467300,12.68546728515625,-1.1297953128814697,1.1394164562225342,2.4811818599700928
1764634067024212700,12.702212646484375,-1.0419833660125732,0.8976664543151855,2.456289052963257
1764634067040960300,12.718960205078124,-0.8516988754272461,0.7903069257736206,2.3936755657196045
1764634067057721600,12.7357216796875,-0.6241515874862671,0.8581129312515259,2.2627975940704346
1764634067074466300,12.75246630859375,-0.47082439064979553,0.9590584635734558,2.1151208877563477
1764634067091211500,12.76921142578125,-0.41401392221450806,0.963792622089386,2.0063869953155518
1764634067107954400,12.785954345703125,-0.3877467215061188,0.9069821834564209,1.9680551290512085
1764634067124708900,12.802708984375,-0.34987306594848633,0.9236282706260681,1.9724838733673096
1764634067141451800,12.81945166015625,-0.3066543638706207,1.0471757650375366,1.9792033433914185
1764634067158181600,12.836181640625,-0.2672535479068756,1.1867583990097046,1.9058995246887207
1764634067174919400,12.85291943359375,-0.24572055041790009,1.305266261100769,1.8176295757293701
1764634067191673600,12.869673583984374,-0.23319780826568604,1.378722906112671,1.7392860651016235
1764634067208429000,12.886428955078125,-0.19868391752243042,1.3466523885726929,1.5658003091812134
1764634067225163500,12.90316357421875,-0.17318029701709747,1.2412781715393066,1.3463469743728638
1764634067241918000,12.91991796875,-0.13759739696979523,1.0737483501434326,1.126588225364685
1764634067258663400,12.936663330078124,-0.08796459436416626,0.9082038998603821,0.9566149711608887
1764634067275405800,12.95340576171875,-0.04001167416572571,0.8439103364944458,0.85994553565979
1764634067292172500,12.970172607421874,-0.0003054326225537807,0.8145887851715088,0.7764097452163696
1764634067308916700,12.986916748046875,0.050243668258190155,0.7313584089279175,0.697760820388794
1764634067325638100,13.00363818359375,0.10170906037092209,0.6430884003639221,0.6594290137290955
1764634067342380500,13.020380615234375,0.1371392458677292,0.5166392922401428,0.603687584400177
1764634067359146200,13.037146240234375,0.1569923609495163,0.4488332271575928,0.48288896679878235
1764634067375881500,13.053881591796875,0.15241087973117828,0.43646320700645447,0.2629774808883667
1764634067392635400,13.070635498046874,0.10583240538835526,0.46471574902534485,0.04092797264456749
1764634067409383200,13.087383056640626,0.0731511116027832,0.4818199574947357,-0.09208793938159943
1764634067426111700,13.10411181640625,0.00855211354792118,0.5111414790153503,-0.13271047174930573
1764634067442879200,13.120879150390625,-0.03741549700498581,0.5230533480644226,-0.12049316614866257
1764634067459637200,13.13763720703125,-0.03390302136540413,0.5145012736320496,-0.11514809727668762
1764634067476374500,13.15437451171875,-0.03741549700498581,0.4407392740249634,-0.1598939746618271
1764634067493127200,13.171127197265625,-0.03497203439474106,0.3430008292198181,-0.20143280923366547
1764634067509866800,13.18786669921875,-0.01038470957428217,0.24144448339939117,-0.18906278908252716
1764634067526602000,13.20460205078125,-0.0007635815418325365,0.156686931848526,-0.12339477986097336
1764634067543367700,13.22136767578125,-0.023518312722444534,0.096211276948452,-0.04214970022439957
1764634067560113200,13.238113037109375,-0.06414084881544113,0.08750644326210022,0.008857546374201775
1764634067576875000,13.254875,-0.08552113175392151,0.07620543986558914,-0.03039054572582245
1764634067593607400,13.271607421875,-0.09575312584638596,0.07895433157682419,-0.12782354652881622
1764634067610354000,13.28835400390625,-0.0832303911447525,-0.00366519158706069,-0.2845104932785034
1764634067627080200,13.305080078125,-0.06475171446800232,-0.11789698898792267,-0.4115704596042633
1764634067643830300,13.321830322265624,-0.05421429127454758,-0.21624629199504852,-0.44486260414123535
1764634067660579300,13.338579345703126,-0.02367102913558483,-0.2819143235683441,-0.4280638098716736
1764634067677326600,13.35532666015625,0.005497787147760391,-0.2747366428375244,-0.43646320700645447
1764634067694072000,13.372072021484374,0.02168571576476097,-0.26053401827812195,-0.4535674452781677
1764634067710820000,13.388820068359376,0.014049900695681572,-0.27382034063339233,-0.4677700698375702
1764634067727565000,13.40556494140625,0.015271631069481373,-0.27351492643356323,-0.4847215712070465
1764634067744311000,13.42231103515625,0.014966198243200779,-0.26343563199043274,-0.5403103232383728
1764634067761034800,13.43903466796875,0.004734205547720194,-0.3393356502056122,-0.6531676650047302
1764634067777821400,13.455821533203125,-0.026419922709465027,-0.47998735308647156,-0.7673994898796082
1764634067794563800,13.472563720703125,-0.043218716979026794,-0.6018549799919128,-0.8518515825271606
1764634067811311600,13.4893115234375,-0.04596760869026184,-0.651029646396637,-0.8775079250335693
1764634067828031000,13.506031005859375,-0.03130684420466423,-0.6624833345413208,-0.8856018781661987
1764634067844795400,13.52279541015625,-0.015882495790719986,-0.7012733221054077,-0.9631817936897278
1764634067861537000,13.539537109375,-0.010537425056099892,-0.8100073337554932,-1.1482739448547363
1764634067878284500,13.556284423828124,-0.01970040425658226,-0.9753990769386292,-1.406822681427002
1764634067895029800,13.57302978515625,-0.05360342562198639,-1.074817419052124,-1.6354389190673828
1764634067911767000,13.58976708984375,-0.0754418596625328,-1.0045678615570068,-1.7295122146606445
1764634067928526000,13.606526123046875,-0.055894169956445694,-0.8400924205780029,-1.652695894241333
1764634067945283300,13.623283447265624,-0.026572637259960175,-0.7538077235221863,-1.559233546257019
1764634067962028000,13.640028076171875,0.02321287989616394,-0.7762570381164551,-1.556179165840149
1764634067978757600,13.656757568359374,0.10048733651638031,-0.8591819405555725,-1.674992561340332
1764634067995522000,13.67352197265625,0.42271876335144043,-0.727998673915863,-1.837024450302124
1764634068012269000,13.69026904296875,0.5656611919403076,-0.39843684434890747,-1.8819230794906616
1764634068029011500,13.707011474609375,0.26939156651496887,-0.0429132841527462,-1.9274325370788574
1764634068045725200,13.72372509765625,0.055283304303884506,-0.07590000331401825,-1.8694003820419312
1764634068062498800,13.740498779296875,0.014049900695681572,-0.2513710558414459,-1.9350683689117432
1764634068079242500,13.757242431640625,0.08017606288194656,-0.5187773108482361,-2.2818870544433594
1764634068095987700,13.77398779296875,0.19822576642036438,-0.808174729347229,-2.7594311237335205
1764634068112728000,13.79072802734375,0.24327708780765533,-0.9387471675872803,-3.1679470539093018
1764634068129480700,13.807480712890625,0.17806722223758698,-0.8692612648010254,-3.374419689178467
1764634068146228500,13.824228515625,0.09346238523721695,-0.8188648819923401,-3.2792773246765137
1764634068162974000,13.840973876953125,0.16111570596694946,-0.9024006724357605,-3.045010566711426
1764634068179721200,13.85772119140625,0.25014930963516235,-0.8952230215072632,-2.950631856918335
1764634068196461600,13.874461669921875,0.2638937830924988,-0.8622363209724426,-2.937192916870117
1764634068213214200,13.891214111328125,0.16920967400074005,-0.9758572578430176,-2.847701072692871
1764634068229944600,13.907944580078125,0.12324206531047821,-1.1591167449951172,-2.6792550086975098
1764634068246707200,13.924707275390626,0.13790282607078552,-1.2794572114944458,-2.571589946746826
1764634068263437000,13.94143701171875,0.12263119965791702,-1.362382173538208,-2.4886651039123535
1764634068280216600,13.958216552734376,0.12034045159816742,-1.3852896690368652,-2.3964242935180664
1764634068296958500,13.97495849609375,0.09269879758358002,-1.3423763513565063,-2.1844542026519775
1764634068313706000,13.9917060546875,0.12003502249717712,-1.4608842134475708,-1.795027494430542
1764634068330448100,14.0084482421875,0.16279558837413788,-1.5628987550735474,-1.6131423711776733
1764634068347203300,14.025203369140625,0.16081027686595917,-1.4492777585983276,-1.6798794269561768
1764634068363944400,14.0419443359375,0.1368338167667389,-1.2014192342758179,-1.7333301305770874
1764634068380692000,14.05869189453125,0.11728613078594208,-1.0876455307006836,-1.6423112154006958
1764634068397433000,14.07543310546875,0.0731511116027832,-1.0277807712554932,-1.445918083190918
1764634068414189600,14.092189453125,0.0529925599694252,-0.9983065128326416,-1.16293466091156
1764634068430931000,14.108930908203124,0.06108652427792549,-1.0089967250823975,-0.9665415287017822
1764634068447697700,14.12569775390625,0.08445212244987488,-0.9529497623443604,-0.9697485566139221
1764634068464423400,14.14242333984375,0.1215621829032898,-0.7651087045669556,-1.0021244287490845
1764634068481170700,14.159170654296876,0.15653422474861145,-0.6239988207817078,-0.9784533977508545
1764634068497886500,14.175886474609374,0.18310685455799103,-0.570242702960968,-0.9445503950119019
1764634068514668800,14.192668701171876,0.17959438264369965,-0.5728389024734497,-0.8979719281196594
1764634068531410200,14.20941015625,0.18906278908252716,-0.5775730609893799,-0.7951938509941101
1764634068548134100,14.226134033203126,0.2629774808883667,-0.5731443166732788,-0.6114761233329773
1764634068564902400,14.24290234375,0.3830125033855438,-0.6171266436576843,-0.4141666293144226
1764634068581654500,14.259654541015625,0.5238169431686401,-0.755793035030365,-0.2952006161212921
1764634068598374700,14.276374755859376,0.5978843569755554,-0.9944885969161987,-0.34177911281585693
1764634068615131100,14.293131103515625,0.5732970237731934,-1.1174252033233643,-0.49617528915405273
1764634068631875800,14.309875732421874,0.5340489149093628,-1.0277807712554932,-0.6189591884613037
1764634068648621300,14.326621337890625,0.5830708742141724,-0.9411906003952026,-0.7040221691131592
1764634068665370400,14.343370361328125,0.7141014933586121,-0.9184358716011047,-0.7093672752380371
1764634068682100500,14.3601005859375,0.8060367107391357,-1.00502610206604,-0.6551529765129089
1764634068698857500,14.376857421875,0.8358163833618164,-1.2173017263412476,-0.6418666839599609
1764634068715609000,14.393609130859375,0.7802276611328125,-1.3828462362289429,-0.6325509548187256
1764634068732358400,14.4103583984375,0.6696610450744629,-1.4584407806396484,-0.6436992287635803
1764634068749082600,14.42708251953125,0.5584835410118103,-1.411251425743103,-0.6624833345413208
1764634068765862700,14.443862548828125,0.5117523670196533,-1.298241376876831,-0.6200281977653503
1764634068782608100,14.460608154296875,0.5447390675544739,-1.2255483865737915,-0.49525898694992065
1764634068799353000,14.47735302734375,0.5387831330299377,-1.2273809909820557,-0.28557950258255005
1764634068816088600,14.494088623046874,0.4766276180744171,-1.3533719778060913,-0.07452555745840073
1764634068832846600,14.5108466796875,0.4356996417045593,-1.483791708946228,0.02367102913558483
1764634068849598500,14.527598388671874,0.41859540343284607,-1.430493712425232,0.024892758578062057
1764634068866343700,14.54434375,0.399200439453125,-1.197295904159546,-0.026419922709465027
1764634068883068400,14.561068359375,0.36850446462631226,-0.8675813674926758,-0.08704829961061478
1764634068899832000,14.57783203125,0.2955060601234436,-0.5488623976707458,-0.13469578325748444
1764634068916579000,14.5945791015625,0.19532416760921478,-0.3225368559360504,-0.19303341209888458
1764634068933326000,14.611326171875,0.1339322030544281,-0.20983220636844635,-0.24572055041790009
1764634068950054100,14.62805419921875,0.1371392458677292,-0.21502456068992615,-0.2292271852493286
1764634068966818000,14.644818115234376,0.1459967941045761,-0.285121351480484,-0.16081027686595917
1764634068983564300,14.661564208984375,0.15012013912200928,-0.3911064863204956,-0.11652254313230515
1764634069000313000,14.67831298828125,0.17318029701709747,-0.44577890634536743,-0.12965615093708038
1764634069017035000,14.695034912109374,0.20066922903060913,-0.4509712755680084,-0.16081027686595917
1764634069033809700,14.7118095703125,0.19349156320095062,-0.4680754840373993,-0.19792033731937408
1764634069050547500,14.72854736328125,0.2076941877603531,-0.44180828332901,-0.22082778811454773
1764634069067283700,14.74528369140625,0.24816401302814484,-0.3784310221672058,-0.18829920887947083
1764634069084018400,14.762018310546875,0.24678955972194672,-0.35934147238731384,-0.10201449692249298
1764634069100777000,14.77877685546875,0.1966986060142517,-0.39584067463874817,0.0013744467869400978
1764634069117528300,14.7955283203125,0.1411098688840866,-0.4332561790943146,0.09544769674539566
1764634069134274600,14.812274658203124,0.09544769674539566,-0.4239404797554016,0.15913039445877075
1764634069150994400,14.828994384765625,0.06536258012056351,-0.37369680404663086,0.1472185254096985
1764634069167759400,14.84575927734375,0.03634648025035858,-0.28130343556404114,0.055894169956445694
1764634069184513800,14.862513671875,0.022449297830462456,-0.12339477986097336,-0.06368270516395569
1764634069201257200,14.87925732421875,0.007788531947880983,0.0403171069920063,-0.15027284622192383
1764634069217992400,14.895992431640625,-0.027488935738801956,0.10002918541431427,-0.18157969415187836
1764634069234749400,14.91274951171875,-0.04886921867728233,0.0429132841527462,-0.17409659922122955
1764634069251497000,14.9294970703125,-0.03390302136540413,-0.1010981947183609,-0.14645494520664215
1764634069268255200,14.946255126953124,0.0029016099870204926,-0.23396138846874237,-0.08124507963657379
1764634069284990000,14.962989990234375,0.036041051149368286,-0.30085113644599915,-0.010231993161141872
1764634069301735400,14.9797353515625,0.06994406878948212,-0.3156646192073822,0.00855211354792118
1764634069318483000,14.99648291015625,0.10812314599752426,-0.299476683139801,-0.024587325751781464
1764634069335228400,15.013228515625,0.1495092660188675,-0.27122417092323303,-0.04138612002134323
1764634069351975000,15.029974853515625,0.21059578657150269,-0.26908615231513977,-0.0024434609804302454
1764634069368725500,15.0467255859375,0.2324342280626297,-0.35094207525253296,0.0022907445672899485
1764634069385482200,15.063482177734375,0.2773328125476837,-0.42149701714515686,-0.07528914511203766
1764634069402222300,15.080222412109375,0.3113885521888733,-0.26862800121307373,-0.22861631214618683
1764634069418979300,15.096979248046875,0.26053401827812195,0.13484850525856018,-0.3856086730957031
1764634069435720700,15.113720703125,0.14019356667995453,0.41691553592681885,-0.408363401889801
1764634069452467500,15.130467529296874,-0.04459316283464432,0.2591595947742462,-0.3205515444278717
1764634069469210000,15.147210205078125,-0.18906278908252716,-0.06627888232469559,-0.16432274878025055
1764634069485944000,15.163944091796875,-0.30695977807044983,-0.32421672344207764,0.09162978827953339
1764634069502697000,15.180697021484375,-0.39064833521842957,-0.527634859085083,0.4648684561252594
1764634069519435300,15.197435302734375,-0.5384777188301086,-0.30970868468284607,0.7547240257263184
1764634069536192000,15.21419189453125,-0.7121161818504333,0.31551191210746765,0.7913759350776672
1764634069552934000,15.230933837890625,-0.8958339095115662,0.96883225440979,0.6123924255371094
1764634069569677800,15.247677734375,-1.0734429359436035,1.405295491218567,0.48685958981513977
1764634069586428200,15.26442822265625,-1.2539535760879517,1.5351043939590454,0.5549710988998413
1764634069603172000,15.281172119140624,-1.317789077758789,1.4760031700134277,0.7716755270957947
1764634069619919000,15.297919189453125,-1.32863187789917,1.3933836221694946,1.0317513942718506
1764634069636665600,15.31466552734375,-1.318858027458191,1.3652838468551636,1.2473868131637573
1764634069653413400,15.331413330078124,-1.2683089971542358,1.3704761266708374,1.39323091506958
1764634069670154500,15.348154541015624,-1.1959214210510254,1.3518447875976562,1.5424346923828125
1764634069686909700,15.36490966796875,-1.1797335147857666,1.323439598083496,1.7263051271438599
1764634069703649300,15.381649169921875,-1.1316279172897339,1.2625057697296143,1.8617645502090454
1764634069720397000,15.39839697265625,-1.0491610765457153,1.1740829944610596,1.963779091835022
1764634069737148000,15.41514794921875,-0.9894489645957947,1.0911580324172974,2.1516201496124268
1764634069753892900,15.431892822265626,-0.9769262671470642,1.0418306589126587,2.3516783714294434
1764634069770650000,15.448650146484376,-0.9950994849205017,1.0506882667541504,2.4077253341674805
1764634069787393300,15.465393310546874,-1.032820463180542,1.1122329235076904,2.3374757766723633
1764634069804148000,15.48214794921875,-1.0725266933441162,1.2014192342758179,2.2369885444641113
1764634069820891000,15.498890869140626,-1.1186469793319702,1.2272282838821411,2.2508857250213623
1764634069837619700,15.51561962890625,-1.1730140447616577,1.1838568449020386,2.3519840240478516
1764634069854357200,15.532357177734376,-1.1971431970596313,1.2092077732086182,2.4016168117523193
1764634069871119400,15.549119384765625,-1.1899654865264893,1.2386820316314697,2.429105758666992
1764634069887863600,15.565863525390625,-1.1788171529769897,1.1830933094024658,2.498438835144043
1764634069904603000,15.582602783203125,-1.1672108173370361,1.1829406023025513,2.6119070053100586
1764634069921356500,15.5993564453125,-1.1969904899597168,1.197906732559204,2.7230844497680664
1764634069938111200,15.616111328125,-1.20859694480896,1.1953105926513672,2.791654109954834
1764634069954858500,15.6328583984375,-1.1823296546936035,1.1409435272216797,2.83074951171875
1764634069971608300,15.6496083984375,-1.166752576828003,1.0926852226257324,2.886796474456787
1764634069988355300,15.666355224609376,-1.1563678979873657,1.1268936395645142,2.8512134552001953
1764634070005100500,15.6831005859375,-1.1465940475463867,1.1969904899597168,2.765997886657715
1764634070021848800,15.699848876953125,-1.1551461219787598,1.3095424175262451,2.6926939487457275
1764634070038594000,15.716593994140625,-1.1720976829528809,1.394452691078186,2.646573781967163
1764634070055320800,15.73332080078125,-1.1400272846221924,1.335809588432312,2.624582529067993
1764634070072068600,15.750068603515626,-1.104138970375061,1.1808024644851685,2.618321180343628
1764634070088825300,15.766825439453125,-1.0823005437850952,1.1273517608642578,2.6170995235443115
1764634070105563000,15.78356298828125,-1.0430524349212646,1.1320860385894775,2.6030495166778564
1764634070122318300,15.800318359375,-0.9604328870773315,1.1288789510726929,2.5506677627563477
1764634070139059000,15.817058837890626,-0.8455902338027954,1.0482447147369385,2.4755313396453857
1764634070155808300,15.833808349609376,-0.7745771408081055,1.0180069208145142,2.4581217765808105
1764634070172553000,15.850552978515625,-0.7240280508995056,1.0543533563613892,2.4581217765808105
1764634070189300700,15.86730078125,-0.6420193910598755,1.0986411571502686,2.3628268241882324
1764634070206045700,15.884045654296875,-0.5450445413589478,1.118036150932312,2.135584831237793
1764634070222793500,15.90079345703125,-0.47571131587028503,1.1191051006317139,1.867567777633667
1764634070239539000,15.9175390625,-0.41722095012664795,0.9950994849205017,1.6555975675582886
1764634070256302300,15.93430224609375,-0.3572034537792206,0.8735373020172119,1.4645494222640991
1764634070273044700,15.951044677734375,-0.3066543638706207,0.7553348541259766,1.3096951246261597
1764634070289770800,15.967770751953125,-0.2776382565498352,0.6334672570228577,1.22279953956604
1764634070306524700,15.984524658203124,-0.22739458084106445,0.45326200127601624,1.0954340696334839
1764634070323272200,16.001272216796874,-0.17547103762626648,0.26145032048225403,0.9161451458930969
1764634070340018200,16.01801806640625,-0.13805554807186127,0.10231992602348328,0.7785477638244629
1764634070356765000,16.034764892578124,-0.11301007121801376,-0.007024950347840786,0.6806566119194031
1764634070373511000,16.051510986328125,-0.09682214260101318,-0.03787364438176155,0.6490443348884583
1764634070390261500,16.068261474609375,-0.08659014850854874,-0.026572637259960175,0.6006332635879517
1764634070407016400,16.085016357421875,-0.07513642311096191,-0.0705549344420433,0.5326744914054871
1764634070423764000,16.101763916015624,-0.04566217586398125,-0.17333301901817322,0.46639561653137207
1764634070440510000,16.118510009765625,-0.01191187184303999,-0.2002110779285431,0.3698789179325104
1764634070457256700,16.135256591796875,0.024129176512360573,-0.16111570596694946,0.23090706765651703
1764634070474002400,16.15200244140625,0.03344487398862839,-0.04795292019844055,0.08491026610136032
1764634070490762500,16.168762451171876,0.011453723534941673,0.055283304303884506,-0.018325956538319588
1764634070507495200,16.1854951171875,0.001527163083665073,0.06673702597618103,-0.07635815441608429
1764634070524243200,16.2022431640625,0.003512475173920393,0.005192354787141085,-0.09575312584638596
1764634070540953600,16.21895361328125,0.02977968007326126,-0.0809396430850029,-0.11071932315826416
1764634070557712000,16.2357119140625,0.0555887371301651,-0.14019356667995453,-0.15012013912200928
1764634070574468600,16.252468505859376,0.06536258012056351,-0.14523321390151978,-0.22143864631652832
1764634070591216000,16.269216064453126,0.0507018156349659,-0.10613783448934555,-0.3248275816440582
1764634070607961300,16.28596142578125,0.05955936014652252,-0.07177666574716568,-0.44226643443107605
1764634070624709000,16.302709228515624,0.07070764899253845,-0.08674286305904388,-0.5233588218688965
1764634070641454600,16.31945458984375,0.08017606288194656,-0.11331550031900406,-0.5143485069274902
1764634070658201900,16.336201904296875,0.08903361111879349,-0.08170322328805923,-0.4847215712070465
1764634070674947600,16.352947509765624,0.08597928285598755,0.010231993161141872,-0.48976120352745056
1764634070691695000,16.369695068359373,0.08338310569524765,0.08445212244987488,-0.5720753073692322
1764634070708440300,16.3864404296875,0.10781771689653397,-0.0027488935738801956,-0.735634446144104
1764634070725188000,16.40318798828125,0.15454891324043274,-0.22067506611347198,-0.8915578126907349
1764634070741949400,16.419949462890624,0.1875356286764145,-0.43967026472091675,-0.9399688839912415
1764634070758677800,16.436677734375,0.2025018334388733,-0.5271766781806946,-0.8772025108337402
1764634070775426300,16.45342626953125,0.21731531620025635,-0.39996400475502014,-0.8281805515289307
1764634070792174000,16.470174072265625,0.2116648107767105,-0.06918048858642578,-0.8819366693496704
1764634070808919300,16.486919189453126,0.16325373947620392,0.3149010241031647,-1.0626001358032227
1764634070825663000,16.5036630859375,0.10735956579446793,0.5729916095733643,-1.3703234195709229
1764634070842416000,16.520416015625,0.09010262042284012,0.5520694851875305,-1.7595973014831543
1764634070859159800,16.537159912109374,0.07895433157682419,0.27290403842926025,-2.06854248046875
1764634070875905500,16.553905517578126,0.08017606288194656,-0.06704246252775192,-2.1788036823272705
1764634070892653000,16.570653076171876,0.11423180252313614,-0.3407101035118103,-2.1068742275238037
1764634070909401600,16.587401611328126,0.1722639948129654,-0.547182559967041,-1.9588921070098877
1764634070926158800,16.604158935546874,0.20525072515010834,-0.6362161636352539,-1.9349156618118286
1764634070942904000,16.620904052734375,0.2122756689786911,-0.6033821702003479,-2.0749564170837402
1764634070959651800,16.63765185546875,0.22632557153701782,-0.5510004758834839,-2.2256875038146973
1764634070976397300,16.654397216796873,0.20525072515010834,-0.5907067060470581,-2.291355609893799
1764634070993145300,16.671145263671875,0.20357084274291992,-0.6339253783226013,-2.3403775691986084
1764634071009863000,16.68786279296875,0.2197587788105011,-0.4590652287006378,-2.3906211853027344
1764634071026624800,16.704624755859374,0.20845776796340942,-0.4444044530391693,-2.3018929958343506
1764634071043370200,16.721370361328123,0.3240640163421631,-0.7041749358177185,-2.1397082805633545
1764634071060117800,16.73811767578125,0.4986187517642975,-0.8772025108337402,-2.1293234825134277
1764634071076857600,16.754857666015624,0.5960517525672913,-0.8903360962867737,-2.2716550827026367
1764634071093611300,16.771611328125,0.5812382698059082,-0.7673994898796082,-2.406656265258789
1764634071110356500,16.7883564453125,0.4784601926803589,-0.8008443117141724,-2.4000895023345947
1764634071127104000,16.80510400390625,0.35155296325683594,-0.7232644557952881,-2.3217461109161377
1764634071143849000,16.821848876953126,0.21533000469207764,-0.4430300295352936,-2.4979805946350098
1764634071160596700,16.8385966796875,0.206777885556221,-0.36942076683044434,-2.668412208557129
1764634071177342200,16.85534228515625,0.22663100063800812,-0.5187773108482361,-2.71376895904541
1764634071194090000,16.872090087890626,0.25045475363731384,-0.9613491892814636,-2.4420864582061768
1764634071210835700,16.888835693359376,0.25824329257011414,-1.3727669715881348,-2.1708624362945557
1764634071227582700,16.905582763671877,0.34987306594848633,-1.40269935131073,-2.166586399078369
1764634071244328200,16.922328125,0.4260784983634949,-1.0899362564086914,-2.2501220703125
1764634071261075700,16.93907568359375,0.4943426847457886,-0.9844093322753906,-2.1479549407958984
1764634071277833200,16.955833251953123,0.5196936130523682,-1.1925616264343262,-1.9271271228790283
1764634071294585600,16.972585693359374,0.5326744914054871,-1.5190691947937012,-1.7232508659362793
1764634071311327500,16.989327392578126,0.6198754906654358,-1.6730071306228638,-1.7828102111816406
1764634071328073500,17.006073486328123,0.6913467645645142,-1.4886785745620728,-1.979508876800537
1764634071344821000,17.022821044921876,0.694248378276825,-1.4130840301513672,-1.9449949264526367
1764634071361567500,17.0395673828125,0.6824892163276672,-1.5244141817092896,-1.673465371131897
1764634071378296800,17.056296875,0.7301366925239563,-1.807397484779358,-1.4477506875991821
1764634071395047700,17.073047607421874,0.8136724829673767,-1.845423936843872,-1.5729780197143555
1764634071411793400,17.08979345703125,0.8022187948226929,-1.658041000366211,-1.853365182876587
1764634071428540700,17.106540771484376,0.6742424964904785,-1.3933836221694946,-1.9533942937850952
1764634071445286400,17.123286376953125,0.5401576161384583,-1.1943942308425903,-1.7649424076080322
1764634071462033700,17.14003369140625,0.46899178624153137,-1.0714576244354248,-1.4074335098266602
1764634071478776800,17.15677685546875,0.49984049797058105,-1.0781772136688232,-1.1426234245300293
1764634071495539700,17.173539794921876,0.5740606188774109,-1.1104003190994263,-1.0216721296310425
1764634071512297700,17.190297607421876,0.6794348955154419,-1.1337659358978271,-0.9437867999076843
1764634071529016000,17.20701611328125,0.7670940160751343,-1.1377365589141846,-0.9778425693511963
1764634071545748500,17.22374853515625,0.8344419002532959,-1.0667234659194946,-1.2744176387786865
1764634071562516700,17.240516845703127,0.7530441284179688,-0.7504479289054871,-1.5056301355361938
1764634071579257900,17.2572578125,0.6075055003166199,-0.48777589201927185,-1.4039210081100464
1764634071596006100,17.274006103515624,0.6155994534492493,-0.4236350357532501,-1.0939068794250488
1764634071612751000,17.290751220703125,0.7076873779296875,-0.5508477091789246,-0.790154218673706
1764634071629498600,17.30749853515625,0.7622070908546448,-0.799011766910553,-0.6207917928695679
1764634071646244400,17.324244384765624,0.8014551997184753,-1.0184650421142578,-0.6681338548660278
1764634071662987800,17.34098779296875,0.7683157324790955,-1.0545061826705933,-0.7426594495773315
1764634071679741000,17.357740966796875,0.7011205554008484,-0.978606104850769,-0.5815436840057373
1764634071696474600,17.374474609375,0.6721044778823853,-0.8200865983963013,-0.2871066629886627
1764634071713226500,17.3912265625,0.619111955165863,-0.6850853562355042,-0.08445212244987488
1764634071729979000,17.407978759765626,0.5482515692710876,-0.6238461136817932,-0.030695978552103043
1764634071746735900,17.42473583984375,0.5125159621238708,-0.7066183686256409,-0.030085112899541855
1764634071763451100,17.441451171875,0.5112941861152649,-0.9489791393280029,0.00366519158706069
1764634071780228600,17.458228515625,0.4899139404296875,-1.18660569190979,0.10231992602348328
1764634071796976400,17.474976318359374,0.4115704596042633,-1.246165156364441,0.22113321721553802
1764634071813721900,17.491721923828123,0.31520646810531616,-1.1242974996566772,0.2480112910270691
1764634071830467000,17.508467041015624,0.2611449062824249,-1.006095051765442,0.16554448008537292
1764634071847217200,17.525217041015626,0.26343563199043274,-0.9531024694442749,0.06918048858642578
1764634071863962400,17.54196240234375,0.24587325751781464,-0.8869763612747192,0.013439035043120384
1764634071880707600,17.55870751953125,0.20906862616539001,-0.7907650470733643,-0.04337143152952194
1764634071897437200,17.575437255859374,0.17333301901817322,-0.7014260292053223,-0.08811730891466141
1764634071914203600,17.59220361328125,0.15302173793315887,-0.6281222105026245,-0.13072516024112701
1764634071930951000,17.608950927734377,0.11835514008998871,-0.22571471333503723,-0.31261029839515686
1764634071947661300,17.625661376953126,0.01114829070866108,0.43508878350257874,-0.5899431109428406
1764634071964448800,17.64244873046875,-0.10384709388017654,0.6572909951210022,-0.6000223755836487
1764634071981181400,17.659181396484374,-0.17867808043956757,0.33292156457901,-0.29794952273368835
1764634071997938200,17.675938232421874,-0.2021963894367218,-0.1514945775270462,0.08109235763549805
1764634072014655700,17.69265576171875,-0.15271630883216858,-0.38438695669174194,0.32559117674827576
1764634072031415600,17.70941552734375,-0.08933904021978378,-0.33169981837272644,0.39125919342041016
1764634072048163800,17.726163818359375,-0.04398229718208313,-0.1293507218360901,0.28130343556404114
1764634072064907300,17.7429072265625,-0.03680463135242462,0.1823432743549347,0.0705549344420433
1764634072081653000,17.759653076171876,-0.14019356667995453,0.4740314185619354,-0.04153883829712868
1764634072098400800,17.77640087890625,-0.34666603803634644,0.6256787180900574,0.04352414980530739
1764634072115162600,17.79316259765625,-0.5303837656974792,0.6827946305274963,0.21991148591041565
1764634072131890200,17.80989013671875,-0.6524040699005127,0.7620543837547302,0.34834590554237366
1764634072148638200,17.82663818359375,-0.7428121566772461,0.9008735418319702,0.3781255781650543
1764634072165387000,17.843386962890627,-0.8292495608329773,1.0682506561279297,0.35323283076286316
1764634072182125800,17.860125732421874,-0.9101892113685608,1.2003501653671265,0.3497203588485718
1764634072198885400,17.876885498046875,-0.9766207933425903,1.2614367008209229,0.4103487432003021
1764634072215624700,17.893624755859374,-1.068861484527588,1.2915217876434326,0.5732970237731934
1764634072232388900,17.910388916015624,-1.1548407077789307,1.3110694885253906,0.7492262125015259
1764634072249128200,17.927128173828127,-1.2122620344161987,1.3368785381317139,0.9297369122505188
1764634072265865700,17.94386572265625,-1.2441798448562622,1.334282398223877,1.1172724962234497
1764634072282610700,17.960610595703123,-1.2299771308898926,1.279915452003479,1.2631165981292725
1764634072299359700,17.97735986328125,-1.1832460165023804,1.2481504678726196,1.3394747972488403
1764634072316102700,17.9941025390625,-1.1323914527893066,1.2983940839767456,1.4103351831436157
1764634072332847900,18.010847900390626,-1.1204795837402344,1.322981357574463,1.541213035583496
1764634072349594000,18.027593994140624,-1.13758385181427,1.3437508344650269,1.674839735031128
1764634072366350300,18.044350341796875,-1.1246029138565063,1.3513866662979126,1.8208365440368652
1764634072383089200,18.061089111328126,-1.1181888580322266,1.2957979440689087,1.9872974157333374
1764634072399835600,18.077835693359376,-1.1568260192871094,1.1872166395187378,2.121229648590088
1764634072416570400,18.0945703125,-1.2060006856918335,1.1215485334396362,2.1876611709594727
1764634072434960100,18.112960205078124,-1.2483031749725342,1.126282811164856,2.196976900100708
1764634072450075600,18.12807568359375,-1.2919800281524658,1.1290316581726074,2.2258403301239014
1764634072466823400,18.144823486328125,-1.3232868909835815,1.1623238325119019,2.3044891357421875
1764634072483568600,18.161568603515626,-1.3220651149749756,1.1980594396591187,2.381152629852295
1764634072500307700,18.1783076171875,-1.3066407442092896,1.2069170475006104,2.4355196952819824
1764634072517062000,18.195061767578125,-1.2991576194763184,1.2441798448562622,2.4584271907806396
1764634072533804300,18.21180419921875,-1.2957979440689087,1.2687671184539795,2.5080599784851074
1764634072550559700,18.228559814453124,-1.3222178220748901,1.259145975112915,2.6080892086029053
1764634072567297800,18.2452978515625,-1.3400856256484985,1.278388261795044,2.674826145172119
1764634072584044300,18.262044189453125,-1.3267992734909058,1.3179417848587036,2.710256338119507
1764634072600807200,18.27880712890625,-1.2956452369689941,1.376279354095459,2.6977336406707764
1764634072617542100,18.295542236328124,-1.2736539840698242,1.4798210859298706,2.576018810272217
1764634072634281700,18.31228173828125,-1.2484558820724487,1.6496416330337524,2.414292097091675
1764634072651033900,18.329033935546875,-1.25761878490448,1.80510675907135,2.328160047531128
1764634072667777800,18.34577783203125,-1.2373075485229492,1.8197675943374634,2.3080015182495117
1764634072684530400,18.362530517578126,-1.1433870792388916,1.707215666770935,2.284025192260742
1764634072701259500,18.379259521484375,-1.024420976638794,1.6430747509002686,2.30051851272583
1764634072718019800,18.396019775390624,-0.8869763612747192,1.6096298694610596,2.3347270488739014
1764634072734763300,18.41276318359375,-0.7805330753326416,1.5238033533096313,2.3405301570892334
1764634072751519700,18.429519775390624,-0.7330383062362671,1.3889548778533936,2.328160047531128
1764634072768244200,18.446244140625,-0.6809620261192322,1.2128729820251465,2.2411117553710938
1764634072785005600,18.463005615234376,-0.6382014751434326,1.0823005437850952,2.1120665073394775
1764634072801749800,18.479749755859373,-0.6264423131942749,1.0758863687515259,1.9856175184249878
1764634072818502100,18.496502197265624,-0.6229298114776611,1.1467467546463013,1.850616216659546
1764634072835245800,18.513245849609376,-0.6026185750961304,1.2267701625823975,1.705993890762329
1764634072851991800,18.52999169921875,-0.5693264007568359,1.2710578441619873,1.5361733436584473
1764634072868735500,18.546735595703126,-0.5648976564407349,1.297935962677002,1.3828462362289429
1764634072885488400,18.56348828125,-0.5739079117774963,1.4010194540023804,1.2548699378967285
1764634072902230500,18.58023046875,-0.5612324476242065,1.4353805780410767,1.2014192342758179
1764634072918976300,18.596976318359374,-0.5293147563934326,1.3324497938156128,1.249372124671936
1764634072935728000,18.61372802734375,-0.4879286289215088,1.1943942308425903,1.3457361459732056
1764634072952455000,18.630454833984373,-0.4499022662639618,1.0713049173355103,1.367727279663086
1764634072969218000,18.647218017578126,-0.4170682430267334,0.9659306406974792,1.3138184547424316
1764634072985959700,18.663959716796874,-0.3862195611000061,0.9066767692565918,1.2299771308898926
1764634073002715100,18.680715087890626,-0.34086281061172485,0.8906415104866028,1.1117748022079468
1764634073019464400,18.69746435546875,-0.3202461004257202,0.8672759532928467,0.9984592199325562
1764634073036191700,18.714191650390624,-0.2955060601234436,0.8199338912963867,0.8718574047088623
1764634073052949800,18.73094970703125,-0.24587325751781464,0.7499898076057434,0.7512115240097046
1764634073069688300,18.747688232421876,-0.18325957655906677,0.6270532011985779,0.6444628238677979
1764634073086442500,18.7644423828125,-0.1189660057425499,0.44516804814338684,0.5520694851875305
1764634073103190300,18.781190185546876,-0.046273041516542435,0.27290403842926025,0.49006664752960205
1764634073119935500,18.797935546875,0.016493361443281174,0.10842858254909515,0.4634940028190613
1764634073136683000,18.81468310546875,0.039706241339445114,0.02977968007326126,0.46364670991897583
1764634073153428700,18.8314287109375,0.055741455405950546,0.052228979766368866,0.4363104999065399
1764634073170176300,18.84817626953125,0.10812314599752426,0.0377209298312664,0.27641651034355164
1764634073186921500,18.86492138671875,0.07925976812839508,-0.00045814894838258624,0.08475755155086517
1764634073203669200,18.881669189453124,0.044135015457868576,-0.027488935738801956,-0.06627888232469559
1764634073220427000,18.898427001953124,0.08032877743244171,-0.08720101416110992,-0.2197587788105011
1764634073237178000,18.91517822265625,0.08857546001672745,-0.12293662875890732,-0.29245173931121826
1764634073253918200,18.931918212890626,0.06520986557006836,-0.11423180252313614,-0.31871894001960754
1764634073270655000,18.948655029296877,0.06902777403593063,-0.12965615093708038,-0.3520110845565796
1764634073287400400,18.965400390625,0.08888089656829834,-0.20952677726745605,-0.4066835343837738
1764634073304157200,18.9821572265625,0.10231992602348328,-0.2906191349029541,-0.49327367544174194
1764634073320893400,18.9988935546875,0.10430523753166199,-0.3214678466320038,-0.5632177591323853
1764634073337641000,19.015640869140626,0.09926560521125793,-0.35705074667930603,-0.619111955165863
1764634073354389500,19.032389404296875,0.10720685124397278,-0.403781920671463,-0.685390830039978
1764634073371146800,19.049146728515623,0.11942415684461594,-0.48456886410713196,-0.7756461501121521
1764634073387889200,19.06588916015625,0.13377949595451355,-0.5658139586448669,-0.8828529715538025
1764634073404643000,19.08264306640625,0.15546520054340363,-0.6635523438453674,-0.9639453291893005
1764634073421380900,19.099380859375,0.18707747757434845,-0.7225008606910706,-1.0306823253631592
1764634073438132500,19.116132568359376,0.23060162365436554,-0.7005097270011902,-1.0761919021606445
1764634073454871800,19.132871826171876,0.28099802136421204,-0.6180428862571716,-1.1365147829055786
1764634073471616800,19.14961669921875,0.30115658044815063,-0.5590944290161133,-1.202946424484253
1764634073488358400,19.1663583984375,0.2961169183254242,-0.5598580241203308,-1.2176071405410767
1764634073505105700,19.183105712890626,0.32009339332580566,-0.5887213945388794,-1.2072224617004395
1764634073521851400,19.199851318359375,0.3660610020160675,-0.6088799238204956,-1.2466232776641846
1764634073538595000,19.216594970703124,0.3851505517959595,-0.5864306092262268,-1.3365731239318848
1764634073555348000,19.233347900390626,0.35842517018318176,-0.6259841322898865,-1.454470157623291
1764634073572108000,19.25010791015625,0.3266601860523224,-0.675616979598999,-1.510364294052124
1764634073588833800,19.266833740234375,0.2945897579193115,-0.7191411256790161,-1.5025757551193237
1764634073605581000,19.2835810546875,0.3484986126422882,-0.6609562039375305,-1.45004141330719
1764634073622334200,19.300334228515624,0.3376557528972626,-0.5592471361160278,-1.4436272382736206
1764634073639078000,19.317077880859376,0.3407101035118103,-0.37171149253845215,-1.468367338180542
1764634073655823400,19.3338232421875,0.34284812211990356,-0.3219259977340698,-1.4943290948867798
1764634073672567000,19.350567138671874,0.33017265796661377,-0.6020076870918274,-1.4190399646759033
1764634073689320000,19.36731982421875,0.35674530267715454,-0.7478517889976501,-1.4987578392028809
1764634073706058500,19.38405859375,0.3735440969467163,-0.6108652353286743,-1.763109803199768
1764634073722814500,19.400814453125,0.342695415019989,-0.40775254368782043,-1.9995146989822388
1764634073739552000,19.417552001953126,0.29046642780303955,-0.3933972120285034,-2.0082194805145264
1764634073756288300,19.434288330078125,0.2669481039047241,-0.6789767146110535,-1.8703166246414185
1764634073773053700,19.4510537109375,0.29535335302352905,-1.010829210281372,-1.8460347652435303
1764634073789782500,19.467782470703124,0.34208452701568604,-1.067639708518982,-2.085035800933838
1764634073806545200,19.484545166015625,0.3533855378627777,-0.9051495790481567,-2.378403902053833
1764634073823292200,19.501292236328126,0.3784310221672058,-0.7092145681381226,-2.483930826187134
1764634073840035800,19.518035888671875,0.41370847821235657,-0.6637051105499268,-2.4185681343078613
1764634073856781000,19.534781005859376,0.39904773235321045,-0.794277548789978,-2.297616958618164
1764634073873532700,19.55153271484375,0.33017265796661377,-1.0781772136688232,-2.2018637657165527
1764634073890272500,19.5682724609375,0.2964223623275757,-1.206153392791748,-2.272265911102295
1764634073907020800,19.585020751953124,0.29336804151535034,-1.1632401943206787,-2.450485944747925
1764634073923770000,19.60177001953125,0.2987131178379059,-1.0228939056396484,-2.621375560760498
1764634073940510500,19.618510498046874,0.3404046595096588,-0.9474520087242126,-2.5831964015960693
1764634073957260800,19.6352607421875,0.3698789179325104,-1.170875906944275,-2.3041837215423584
1764634073974011600,19.65201171875,0.36392298340797424,-1.589624047279358,-2.012953758239746
1764634073990753500,19.66875341796875,0.3975205719470978,-1.840842366218567,-1.9431623220443726
1764634074007496700,19.68549658203125,0.44104471802711487,-1.6410894393920898,-2.1502456665039062
1764634074024250400,19.70225048828125,0.4813618063926697,-1.3019065856933594,-2.325411319732666
1764634074040993800,19.718993896484374,0.5108360648155212,-1.180649757385254,-2.250580310821533
1764634074057751800,19.735751708984374,0.5018258094787598,-1.4204144477844238,-1.9364428520202637
1764634074074486800,19.75248681640625,0.49556443095207214,-1.7253888845443726,-1.645365595817566
1764634074091232500,19.769232421875,0.5386304259300232,-1.721112847328186,-1.5830572843551636
1764634074107979500,19.7859794921875,0.618195652961731,-1.5499178171157837,-1.4760031700134277
1764634074124725500,19.8027255859375,0.7330383062362671,-1.4460707902908325,-1.1956160068511963
1764634074141472800,19.81947265625,0.8852964639663696,-1.4213306903839111,-0.9445503950119019
1764634074158218000,19.836218017578126,1.0971139669418335,-1.4407256841659546,-0.9137017130851746
1764634074174966000,19.852966064453124,1.214400053024292,-1.4164438247680664,-1.0025825500488281
1764634074191711200,19.869711181640625,1.212720274925232,-1.358258843421936,-0.9781479835510254
1764634074208474400,19.886474365234374,1.2180652618408203,-1.2985467910766602,-0.7941248416900635
1764634074225217500,19.903217529296874,1.3333661556243896,-1.363603949546814,-0.5737552046775818
1764634074241964800,19.91996484375,1.4547755718231201,-1.5335772037506104,-0.4908302128314972
1764634074258706700,19.936706787109376,1.4743232727050781,-1.632842779159546,-0.6592763066291809
1764634074275445000,19.953445068359375,1.3474160432815552,-1.5105170011520386,-0.8700248003005981
1764634074292186400,19.970186279296875,1.214552879333496,-1.2826642990112305,-0.8904888033866882
1764634074308941600,19.986941650390627,1.2402092218399048,-1.0989465713500977,-0.7046330571174622
1764634074325679600,20.0036796875,1.2806789875030518,-1.0595457553863525,-0.4612032473087311
1764634074342434600,20.0204345703125,1.2571606636047363,-1.1456778049468994,-0.3543018400669098
1764634074359176200,20.03717626953125,1.179580807685852,-1.2939653396606445,-0.43508878350257874
1764634074375923700,20.053923828125,0.9990701079368591,-1.331380844116211,-0.542142927646637
1764634074392669200,20.070669189453124,0.759916365146637,-1.2316570281982422,-0.46364670991897583
1764634074409419800,20.087419677734374,0.6401867866516113,-1.0257954597473145,-0.2744311988353729
1764634074426175500,20.104175537109374,0.5951354503631592,-0.7370089292526245,-0.1670716404914856
1764634074442906400,20.12090625,0.5105306506156921,-0.4694499373435974,-0.20616702735424042
1764634074459655000,20.137655029296877,0.4245513379573822,-0.34345898032188416,-0.2574796974658966
1764634074476402700,20.154402587890626,0.370947927236557,-0.3306308090686798,-0.19486601650714874
1764634074493148400,20.1711484375,0.34605515003204346,-0.3825543522834778,-0.047189339995384216
1764634074509880600,20.187880615234373,0.3599523603916168,-0.41523563861846924,0.06612616032361984
1764634074526641400,20.204641357421874,0.36789360642433167,-0.36300668120384216,0.0685696229338646
1764634074543388400,20.221388427734375,0.34162637591362,-0.3019201457500458,-0.0012217304902151227
1764634074560122000,20.2381220703125,0.31780263781547546,-0.28298333287239075,-0.0809396430850029
1764634074576878600,20.254878662109373,0.31413745880126953,-0.32971450686454773,-0.13454307615756989
1764634074593627400,20.27162744140625,0.2941316068172455,-0.43676865100860596,-0.1287398487329483
1764634074610374400,20.28837451171875,0.27550023794174194,-0.5406157374382019,-0.09804387390613556
1764634074627120000,20.3051201171875,0.2838996350765228,-0.5992587804794312,-0.08017606288194656
1764634074643866400,20.321866455078126,0.3162754774093628,-0.5926920175552368,-0.06276640295982361
1764634074660614100,20.3386142578125,0.3271183371543884,-0.5838344693183899,-0.032681290060281754
1764634074677360600,20.355360595703125,0.32330042123794556,-0.5557346343994141,0.039248090237379074
1764634074694106000,20.372106201171874,0.3168863356113434,-0.48808133602142334,0.11392636597156525
1764634074710853400,20.388853271484376,0.2987131178379059,-0.3969096839427948,0.1258382350206375
1764634074727599000,20.40559912109375,0.27977627515792847,-0.29138273000717163,0.060322944074869156
1764634074744346400,20.422346435546874,0.2557998299598694,-0.22479841113090515,-0.019853120669722557
1764634074761095200,20.43909521484375,0.22311852872371674,-0.1898263692855835,-0.048258353024721146
1764634074777852700,20.455852783203124,0.1794416606426239,0.010995574295520782,-0.14752395451068878
1764634074794598400,20.472598388671877,0.11636982858181,0.2632829248905182,-0.28359419107437134
1764634074811331600,20.48933154296875,0.03726277872920036,0.2906191349029541,-0.3081815242767334
1764634074828091400,20.50609130859375,-0.02474004216492176,0.1388191282749176,-0.20433442294597626
1764634074844838100,20.522838134765625,-0.06719517707824707,0.01038470957428217,-0.08429940044879913
1764634074861580500,20.53958056640625,-0.09300423413515091,-0.024892758578062057,-0.028557950630784035
1764634074878318300,20.556318359375,-0.09605856239795685,-0.033139441162347794,-0.0009162978967651725
1764634074895064000,20.57306396484375,-0.08964447677135468,-0.09437867999076843,0.03145955875515938
1764634074911811300,20.589811279296875,-0.07162395119667053,-0.08704829961061478,0.06612616032361984
1764634074928556300,20.606556396484375,-0.04932736977934837,-0.08475755155086517,0.11056660860776901
1764634074945305000,20.62330517578125,-0.04077525436878204,-0.03588833287358284,0.20555615425109863
1764634074962035000,20.640034912109375,-0.09896016865968704,0.10064005106687546,0.2912299931049347
1764634074978797600,20.656797607421876,-0.1719585657119751,0.31383201479911804,0.3075706362724304
1764634074995542800,20.673542724609376,-0.2750420868396759,0.5612324476242065,0.235030397772789
1764634075012275000,20.69027490234375,-0.4456261992454529,0.7921395301818848,0.15454891324043274
1764634075029052200,20.70705224609375,-0.6383541822433472,0.8984300494194031,0.09651670604944229
1764634075045791500,20.72379150390625,-0.7560984492301941,0.8755226135253906,0.11163562536239624
1764634075062543000,20.740543212890625,-0.8342891931533813,0.8510879874229431,0.21135938167572021
1764634075079276300,20.7572763671875,-0.9111055135726929,0.927446186542511,0.35873061418533325
1764634075096022000,20.77402197265625,-0.9980010986328125,1.1223121881484985,0.4538728892803192
1764634075112773600,20.790773681640626,-1.1074986457824707,1.3652838468551636,0.47937649488449097
1764634075129514800,20.8075146484375,-1.198823094367981,1.5696182250976562,0.52702397108078
1764634075146262300,20.82426220703125,-1.2507466077804565,1.6756033897399902,0.6585127115249634
1764634075162999300,20.840999267578123,-1.254717230796814,1.5751160383224487,0.8999572396278381
1764634075179755500,20.857755615234375,-1.268919825553894,1.4854716062545776,1.1665998697280884
1764634075196501000,20.8745009765625,-1.2838860750198364,1.4967725276947021,1.3226759433746338
1764634075213233200,20.891233154296874,-1.2512047290802002,1.5483906269073486,1.4013248682022095
1764634075229997000,20.9079970703125,-1.2081387042999268,1.5877914428710938,1.4599679708480835
1764634075246754600,20.924754638671875,-1.180649757385254,1.652390480041504,1.5196800231933594
1764634075263478000,20.94147802734375,-1.1311696767807007,1.6519323587417603,1.5998560190200806
