time,seconds_elapsed,z,y,x
1764634054527140900,0.205140869140625,-0.6873761415481567,0.3943135142326355,1.1114692687988281
1764634054543895800,0.221895751953125,-0.7625125646591187,0.1661553531885147,0.699288010597229
1764634054560642800,0.238642822265625,-0.6572909951210022,-0.06536258012056351,0.14798210561275482
1764634054577386800,0.25538671875,-0.3966042697429657,-0.3245221674442291,-0.4786129295825958
1764634054594138600,0.272138671875,-0.15546520054340363,-0.5450445413589478,-1.0448850393295288
1764634054610883600,0.288883544921875,-0.02229658141732216,-0.6006332635879517,-1.4204144477844238
1764634054627638500,0.305638427734375,0.0731511116027832,-0.5943718552589417,-1.5517504215240479
1764634054644365300,0.322365234375,0.1440114825963974,-0.6858489513397217,-1.513113260269165
1764634054661122000,0.3391220703125,0.1774563491344452,-0.8536841869354248,-1.4062118530273438
1764634054677870600,0.35587060546875,0.17776179313659668,-0.9886853694915771,-1.327562928199768
1764634054694612700,0.37261279296875,0.16539175808429718,-1.1184942722320557,-1.3933836221694946
1764634054711361800,0.38936181640625,0.1748601794242859,-1.0448850393295288,-1.5632041692733765
1764634054728100900,0.406100830078125,0.14676037430763245,-0.8622363209724426,-1.6821701526641846
1764634054744869000,0.422869140625,0.03634648025035858,-0.6695083379745483,-1.7273741960525513
1764634054761613800,0.43961376953125,-0.09147707372903824,-0.46670106053352356,-1.7907514572143555
1764634054778358800,0.45635888671875,-0.17928895354270935,-0.2480112910270691,-1.831221342086792
1764634054795088400,0.47308837890625,-0.23060162365436554,-0.02519819140434265,-1.7172949314117432
1764634054811853800,0.489853759765625,-0.28557950258255005,0.21533000469207764,-1.4621059894561768
1764634054828595000,0.506594970703125,-0.3286454975605011,0.3674354553222656,-1.2527319192886353
1764634054845332500,0.52333251953125,-0.4095851480960846,0.48166725039482117,-1.1116219758987427
1764634054862072600,0.540072509765625,-0.5071708559989929,0.45921793580055237,-0.9343183636665344
1764634054878827300,0.5568271484375,-0.6178901791572571,0.31184670329093933,-0.9100365042686462
1764634054895571200,0.5735712890625,-0.6498079299926758,0.28496864438056946,-0.9886853694915771
1764634054912319700,0.59031982421875,-0.5742133259773254,0.19868391752243042,-1.051146388053894
1764634054929071000,0.607071044921875,-0.43386703729629517,-0.02275473065674305,-1.0827586650848389
1764634054945802500,0.623802490234375,-0.28695395588874817,-0.41951170563697815,-1.1264355182647705
1764634054962576000,0.640575927734375,-0.19043724238872528,-0.8223773241043091,-1.207680583000183
1764634054979316500,0.65731640625,-0.11148291081190109,-1.0607675313949585,-1.3110694885253906
1764634054996066000,0.674066162109375,0.003817907767370343,-1.2060006856918335,-1.3252722024917603
1764634055012797700,0.690797607421875,0.17501288652420044,-0.7063129544258118,-1.3362677097320557
1764634055029544700,0.707544677734375,0.34208452701568604,-0.35811975598335266,-1.286940336227417
1764634055046290200,0.724290283203125,0.37980547547340393,-0.39736783504486084,-1.195005178451538
1764634055063038200,0.7410380859375,0.23716843128204346,-0.6960809230804443,-1.077413558959961
1764634055079786500,0.757786376953125,0.036041051149368286,-0.8616254329681396,-0.979216992855072
1764634055096528100,0.774528076171875,0.01237002108246088,-0.9030115604400635,-1.011745572090149
1764634055113292500,0.79129248046875,0.14217889308929443,-0.7805330753326416,-1.168585181236267
1764634055130018300,0.808018310546875,0.17501288652420044,-0.9224064946174622,-1.4911220073699951
1764634055146781700,0.82478173828125,0.27748554944992065,-1.415680170059204,-1.8877263069152832
1764634055163510800,0.8415107421875,0.6397286057472229,-1.7638733386993408,-1.9533942937850952
1764634055180276200,0.858276123046875,0.9332493543624878,-1.8106045722961426,-1.5053247213363647
1764634055197021000,0.87502099609375,0.9007207751274109,-1.772883653640747,-0.8575021028518677
1764634055213762600,0.891762451171875,0.5966626405715942,-1.80037260055542,-0.32849279046058655
1764634055230515700,0.908515625,0.33169981837272644,-1.6215417385101318,-0.21105393767356873
1764634055247245000,0.9252451171875,0.24663683772087097,-1.3637566566467285,-0.4645630121231079
1764634055264007700,0.942007568359375,0.327729195356369,-1.0917688608169556,-0.8976664543151855
1764634055280739600,0.958739501953125,0.4017966091632843,-0.9049968719482422,-1.2000447511672974
1764634055297488600,0.975488525390625,0.347276896238327,-1.096961259841919,-1.2046263217926025
1764634055314233900,0.99223388671875,0.5427537560462952,-1.330159068107605,-1.5415184497833252
1764634055330980900,1.00898095703125,0.7363980412483215,-1.0966558456420898,-2.026240110397339
1764634055347729700,1.025729736328125,0.8139779567718506,-0.8190175890922546,-2.3490822315216064
1764634055364472600,1.04247265625,1.0838276147842407,-0.04886921867728233,-2.3470969200134277
1764634055381220600,1.059220703125,1.4456125497817993,0.7345654368400574,-1.6484198570251465
1764634055397967600,1.075967529296875,1.4260649681091309,0.8057312369346619,-0.5028948187828064
1764634055414712600,1.092712646484375,1.144914150238037,0.6794348955154419,0.9231700897216797
1764634055431475500,1.109475341796875,0.8478809595108032,0.8758280277252197,2.406961679458618
1764634055448218000,1.126218017578125,0.6320928335189819,0.7296785116195679,3.60074520111084
1764634055464947500,1.142947509765625,0.5019785165786743,-0.6892086863517761,3.7245981693267822
1764634055481697000,1.159697021484375,0.25732699036598206,-1.1936306953430176,3.068070650100708
1764634055498446600,1.176446533203125,-0.06368270516395569,-0.9686795473098755,1.9672914743423462
1764634055515191600,1.193191650390625,-0.33078351616859436,-0.2272418737411499,1.3238977193832397
1764634055531938300,1.209938232421875,-0.44577890634536743,0.251676470041275,1.2043207883834839
1764634055548686300,1.226686279296875,-0.45173484086990356,0.3718642294406891,1.231351613998413
1764634055565430300,1.24343017578125,-0.41233405470848083,0.34666603803634644,1.2684617042541504
1764634055582178600,1.260178466796875,-0.4060726761817932,0.19058994948863983,1.301142930984497
1764634055598926000,1.276926025390625,-0.4430300295352936,-0.06780604273080826,1.3350459337234497
1764634055615660800,1.293660888671875,-0.46960264444351196,-0.39614611864089966,1.345583438873291
1764634055632417300,1.310417236328125,-0.43646320700645447,-0.6843217611312866,1.4356859922409058
1764634055649164800,1.327164794921875,-0.4207334518432617,-0.7808384895324707,1.4672982692718506
1764634055665911300,1.343911376953125,-0.42470407485961914,-0.6360634565353394,1.300837516784668
1764634055682667500,1.36066748046875,-0.35384368896484375,-0.42348232865333557,1.0002918243408203
1764634055699411000,1.377410888671875,-0.10797043144702911,-0.08811730891466141,0.7573201656341553
1764634055716161300,1.394161376953125,0.30314189195632935,0.08338310569524765,0.6430884003639221
1764634055732906200,1.41090625,0.6101016402244568,0.024129176512360573,0.423329621553421
1764634055749650200,1.427650146484375,0.37659841775894165,-0.15561792254447937,-0.07070764899253845
1764634055766400500,1.444400390625,-0.27947086095809937,0.024129176512360573,-1.035416603088379
1764634055783148800,1.461148681640625,-0.33246341347694397,0.4867068827152252,-2.0022635459899902
1764634055799896000,1.47789599609375,0.41813725233078003,1.5060882568359375,-1.797776460647583
1764634055816637000,1.494636962890625,0.5900958180427551,2.079232692718506,-0.683863639831543
1764634055833360100,1.511360107421875,0.007941247895359993,1.5650367736816406,0.6626361012458801
1764634055850122000,1.5281220703125,-0.1235474944114685,0.7518224120140076,1.7455474138259888
1764634055866870300,1.544870361328125,0.06551529467105865,0.39645153284072876,2.0535762310028076
1764634055883614200,1.5616142578125,0.2223549485206604,0.4346306324005127,1.8289304971694946
1764634055900361000,1.57836083984375,0.18127426505088806,0.6985244154930115,1.4839444160461426
1764634055917108000,1.59510791015625,-0.030695978552103043,0.988074541091919,1.3028228282928467
1764634055933836000,1.6118359375,-0.14278975129127502,0.7577783465385437,1.36482572555542
1764634055950581500,1.62858154296875,-0.1333213448524475,0.18600846827030182,1.6491833925247192
1764634055967358000,1.64535791015625,-0.3217732608318329,-0.30543261766433716,1.91231369972229
1764634055984097000,1.662096923828125,-0.41004329919815063,-0.29138273000717163,2.0418171882629395
1764634056000835000,1.6788349609375,-0.3952298164367676,-0.06872233748435974,2.065793514251709
1764634056017588000,1.695587890625,-0.36132678389549255,0.05910121276974678,2.1395554542541504
1764634056034331400,1.712331298828125,-0.4980078935623169,0.2562579810619354,2.327854633331299
1764634056051073500,1.729073486328125,-0.8119926452636719,0.5216789245605469,2.5422685146331787
1764634056067826400,1.745826416015625,-1.0919215679168701,0.7948883771896362,2.6510024070739746
1764634056084585200,1.762585205078125,-1.2455542087554932,0.8478809595108032,2.660928964614868
1764634056101333200,1.779333251953125,-1.3445143699645996,0.7261660695075989,2.730720281600952
1764634056118094300,1.79609423828125,-1.424843192100525,0.37858372926712036,2.8686232566833496
1764634056134823700,1.81282373046875,-1.5658003091812134,-0.02015855349600315,3.0253100395202637
1764634056151568000,1.82956787109375,-1.7131716012954712,-0.26282477378845215,3.1031954288482666
1764634056168320000,1.846320068359375,-1.760208249092102,-0.20906862616539001,3.037527322769165
1764634056185051100,1.863051025390625,-1.7270687818527222,0.1189660057425499,2.864499807357788
1764634056201809200,1.87980908203125,-1.688889741897583,0.5044219493865967,2.632676601409912
1764634056218556200,1.89655615234375,-1.6632333993911743,0.8515461683273315,2.4837779998779297
1764634056235284200,1.9132841796875,-1.6439911127090454,1.0958921909332275,2.484999895095825
1764634056252035800,1.930035888671875,-1.5751160383224487,1.2151637077331543,2.5590672492980957
1764634056268795100,1.946795166015625,-1.4697418212890625,1.423621416091919,2.610685348510742
1764634056285549800,1.9635498046875,-1.3347405195236206,1.5606080293655396,2.5696046352386475
1764634056302280400,1.980280517578125,-1.1946996450424194,1.5925257205963135,2.526233196258545
1764634056319021000,1.99702099609375,-1.0212140083312988,1.52578866481781,2.5137104988098145
1764634056335769300,2.013769287109375,-0.8897252082824707,1.4592043161392212,2.529134750366211
1764634056352516600,2.0305166015625,-0.8542950749397278,1.3400856256484985,2.4781274795532227
1764634056369262600,2.0472626953125,-0.7499898076057434,1.2348641157150269,2.415208578109741
1764634056386008000,2.064008056640625,-0.5007568001747131,1.1658363342285156,2.2682952880859375
1764634056402755000,2.080755126953125,-0.3196352422237396,1.18660569190979,2.0949623584747314
1764634056419516400,2.097516357421875,-0.16462817788124084,1.2953397035598755,2.0473148822784424
1764634056436263400,2.114263427734375,-0.12095131725072861,1.4453071355819702,2.060142993927002
1764634056452988200,2.13098828125,-0.15241087973117828,1.5291484594345093,1.9405661821365356
1764634056469727500,2.1477275390625,-0.18356500566005707,1.4811954498291016,1.6687310934066772
1764634056486486800,2.16448681640625,-0.1771509200334549,1.3333661556243896,1.3903292417526245
1764634056503232800,2.181232666015625,-0.15882496535778046,1.1426234245300293,1.2024881839752197
1764634056519982800,2.19798291015625,-0.12400564551353455,0.9787588119506836,1.0806206464767456
1764634056536728300,2.214728271484375,-0.029016099870204926,0.82207190990448,0.9237809777259827
1764634056553474300,2.231474365234375,0.06398813426494598,0.6290385127067566,0.7139487266540527
1764634056570232800,2.24823291015625,-0.03940080851316452,0.2295326143503189,0.4309654235839844
1764634056586968000,2.264968017578125,-0.17760907113552094,0.12828169763088226,0.3055853247642517
1764634056603713300,2.28171337890625,-0.09285151958465576,0.13240504264831543,0.3019201457500458
1764634056620459800,2.298459716796875,-0.07498370856046677,0.058948494493961334,0.3217732608318329
1764634056637206500,2.31520654296875,-0.051770828664302826,0.06398813426494598,0.3378084897994995
1764634056653949400,2.331949462890625,-0.09712757170200348,0.0503963828086853,0.23869559168815613
1764634056670705700,2.34870556640625,-0.21533000469207764,0.05345070734620094,0.019547687843441963
1764634056687475000,2.365474853515625,-0.3352122902870178,0.05864306539297104,-0.24465152621269226
1764634056704202200,2.3822021484375,-0.43188172578811646,0.06658431142568588,-0.4080579876899719
1764634056720950000,2.398949951171875,-0.46868637204170227,0.0734565481543541,-0.4584543704986572
1764634056737699000,2.415698974609375,-0.45952337980270386,0.03451388701796532,-0.475253164768219
1764634056754431200,2.43243115234375,-0.4147774875164032,-0.09453139454126358,-0.5424483418464661
1764634056771190500,2.4491904296875,-0.35185837745666504,-0.28008171916007996,-0.6565274000167847
1764634056787931400,2.465931396484375,-0.2961169183254242,-0.47448956966400146,-0.7673994898796082
1764634056804666400,2.482666259765625,-0.24724771082401276,-0.5963571667671204,-0.808174729347229
1764634056821417500,2.49941748046875,-0.19349156320095062,-0.6352998614311218,-0.7851145267486572
1764634056838164200,2.516164306640625,-0.12522737681865692,-0.6937901973724365,-0.7657195925712585
1764634056854909200,2.5329091796875,-0.07101308554410934,-0.8827002644538879,-0.8208501935005188
1764634056871653000,2.549653076171875,-0.056352317333221436,-1.123686671257019,-0.9983065128326416
1764634056888407600,2.566407470703125,0.013286318629980087,-1.2188289165496826,-1.2385293245315552
1764634056905130500,2.583130615234375,0.055741455405950546,-1.2965614795684814,-1.3862059116363525
1764634056921918700,2.599918701171875,0.01725694350898266,-1.4590516090393066,-1.412473201751709
1764634056938647000,2.61664697265625,-0.052839845418930054,-1.5735888481140137,-1.439351201057434
1764634056955366100,2.6333662109375,0.023518312722444534,-1.3910928964614868,-1.5712981224060059
1764634056972138800,2.650138671875,0.16798794269561768,-1.0936014652252197,-1.779603123664856
1764634056988884000,2.666884033203125,0.24862214922904968,-1.123686671257019,-1.984701156616211
1764634057005623000,2.683623046875,0.247094988822937,-1.420719861984253,-2.228131055831909
1764634057022379000,2.70037890625,0.32070425152778625,-1.545336365699768,-2.487596035003662
1764634057039106300,2.717106201171875,0.46273043751716614,-1.5114333629608154,-2.629622220993042
1764634057055864800,2.73386474609375,0.6056728959083557,-1.5303701162338257,-2.6451992988586426
1764634057072616700,2.75061669921875,0.6893614530563354,-1.7563903331756592,-2.67146635055542
1764634057089361400,2.767361328125,0.7504479289054871,-1.9614882469177246,-2.7730228900909424
1764634057106101000,2.78410107421875,0.8364272117614746,-1.9052886962890625,-2.8160886764526367
1764634057122872600,2.80087255859375,0.8284859657287598,-1.7021759748458862,-2.8512134552001953
1764634057139605000,2.81760498046875,0.7565566301345825,-1.6010777950286865,-2.8205175399780273
1764634057156361200,2.834361328125,0.7402159571647644,-1.6552921533584595,-2.6616926193237305
1764634057173092000,2.851092041015625,0.8156577944755554,-1.7745635509490967,-2.515084981918335
1764634057189835000,2.8678349609375,0.9175195693969727,-1.761277198791504,-2.406045436859131
1764634057206598700,2.8845986328125,1.0031934976577759,-1.649794340133667,-2.4631614685058594
1764634057223344600,2.9013447265625,1.015868902206421,-1.55892813205719,-2.7795896530151367
1764634057240085500,2.91808544921875,1.0245736837387085,-1.5557210445404053,-3.1664199829101562
1764634057256833000,2.9348330078125,1.0742065906524658,-1.7119498252868652,-3.2250630855560303
1764634057273582600,2.95158251953125,1.1023063659667969,-1.8568776845932007,-2.8483119010925293
1764634057290341600,2.968341552734375,1.1296426057815552,-1.9459112882614136,-2.4668266773223877
1764634057307065300,2.9850654296875,1.1207849979400635,-1.8591684103012085,-2.3652701377868652
1764634057323817000,3.00181689453125,1.1800389289855957,-1.751503348350525,-2.3347270488739014
1764634057340558000,3.01855810546875,1.1954632997512817,-1.742034912109375,-2.1725423336029053
1764634057357301000,3.035301025390625,1.149953842163086,-1.8185458183288574,-1.972331166267395
1764634057374057200,3.05205712890625,1.0651962757110596,-1.7872389554977417,-1.7996090650558472
1764634057390797800,3.0687978515625,1.0073168277740479,-1.7621935606002808,-1.7070629596710205
1764634057407558400,3.085558349609375,0.9789115786552429,-1.7851009368896484,-1.7102699279785156
1764634057424301000,3.102301025390625,0.9511171579360962,-1.8197675943374634,-1.720807433128357
1764634057441031000,3.119031005859375,0.9112582206726074,-1.9230037927627563,-1.7117971181869507
1764634057457787400,3.135787353515625,0.8715519905090332,-1.890017032623291,-1.7218763828277588
1764634057474528500,3.152528564453125,0.7793113589286804,-1.7124079465866089,-1.6878206729888916
1764634057491273000,3.16927294921875,0.6940956115722656,-1.531439185142517,-1.504408359527588
1764634057508021000,3.18602099609375,0.7020368576049805,-1.3959797620773315,-1.2278391122817993
1764634057524775400,3.202775390625,0.7802276611328125,-1.3066407442092896,-1.0054842233657837
1764634057541531000,3.21953076171875,0.9092729091644287,-1.3571898937225342,-0.959669291973114
1764634057558273800,3.236273681640625,0.9430232048034668,-1.3694071769714355,-1.0030407905578613
1764634057575018000,3.25301806640625,0.9121745228767395,-1.3002266883850098,-1.0045678615570068
1764634057591772200,3.269772216796875,0.8494081497192383,-1.1840095520019531,-0.8677340745925903
1764634057608514300,3.286514404296875,0.8691084980964661,-1.0616837739944458,-0.6682865619659424
1764634057625262300,3.303262451171875,0.9744827747344971,-0.8329147696495056,-0.5555819272994995
1764634057641999400,3.319999267578125,0.8807149529457092,-0.41599923372268677,-0.616973876953125
1764634057658763300,3.33676318359375,0.7435756921768188,-0.20952677726745605,-0.8617781400680542
1764634057675501300,3.353501220703125,0.698677122592926,-0.27290403842926025,-0.977689802646637
1764634057692248000,3.370248046875,0.6928738951683044,-0.3617849349975586,-0.8639161586761475
1764634057708993000,3.386992919921875,0.6646214127540588,-0.46181413531303406,-0.6452264189720154
1764634057734082300,3.412082275390625,0.6580545902252197,-0.6614143252372742,-0.44058656692504883
1764634057750831600,3.42883154296875,0.5844452977180481,-0.6339253783226013,-0.31642818450927734
1764634057767593500,3.445593505859375,0.46150869131088257,-0.48579058051109314,-0.23105977475643158
1764634057784340200,3.46234033203125,0.34895676374435425,-0.28359419107437134,-0.2125810980796814
1764634057801083000,3.479082763671875,0.3136793076992035,-0.16722436249256134,-0.2200642079114914
1764634057817821400,3.495821533203125,0.3352122902870178,-0.15195272862911224,-0.19746218621730804
1764634057834579700,3.512579833984375,0.3326161205768585,-0.18738290667533875,-0.1287398487329483
1764634057851326000,3.529325927734375,0.3127630054950714,-0.29596421122550964,-0.056352317333221436
1764634057868072700,3.54607275390625,0.2701551616191864,-0.4285219609737396,0.013897184282541275
1764634057884803300,3.56280322265625,0.19792033731937408,-0.4590652287006378,0.0757472887635231
1764634057901581600,3.57958154296875,0.13026700913906097,-0.3985895812511444,0.06017022579908371
1764634057918321400,3.5963212890625,0.07284568250179291,-0.27488934993743896,-0.023365596309304237
1764634057935055600,3.6130556640625,0.001679879380390048,-0.14645494520664215,-0.12400564551353455
1764634057951804700,3.6298046875,-0.052381694316864014,-0.07681630551815033,-0.1918116807937622
1764634057968551200,3.64655126953125,-0.10415252298116684,-0.07147123664617538,-0.18188512325286865
1764634057985297700,3.663297607421875,-0.15561792254447937,-0.1010981947183609,-0.13225232064723969
1764634058002045000,3.680044921875,-0.18539759516716003,-0.08399397134780884,-0.09147707372903824
1764634058018790400,3.696790283203125,-0.1973094791173935,-0.002138028386980295,-0.04902193695306778
1764634058035553500,3.713553466796875,-0.21914790570735931,0.13118331134319305,0.01038470957428217
1764634058052278000,3.730278076171875,-0.24556782841682434,0.24419337511062622,0.07971791177988052
1764634058069043000,3.74704296875,-0.27458393573760986,0.32391130924224854,0.1635591685771942
1764634058085785000,3.76378515625,-0.3170390725135803,0.4079052805900574,0.24892759323120117
1764634058102524400,3.7805244140625,-0.36331209540367126,0.4671591818332672,0.3292563557624817
1764634058119269600,3.79726953125,-0.40286561846733093,0.5097670555114746,0.39538252353668213
1764634058136016400,3.814016357421875,-0.44715335965156555,0.4862487316131592,0.4282165467739105
1764634058152762400,3.830762451171875,-0.5280929803848267,0.43737950921058655,0.44516804814338684
1764634058169509000,3.847509033203125,-0.660192608833313,0.4917465150356293,0.4554000496864319
1764634058186255600,3.864255615234375,-0.797789990901947,0.7849618196487427,0.3764457106590271
1764634058203018800,3.881018798828125,-0.8868235945701599,0.9057604670524597,0.3191770911216736
1764634058219755300,3.89775537109375,-1.0238101482391357,1.1110111474990845,0.3245221674442291
1764634058236489000,3.914489013671875,-1.0995573997497559,1.1830933094024658,0.3770565688610077
1764634058253259000,3.931259033203125,-1.1385000944137573,1.0071641206741333,0.4911356568336487
1764634058269978400,3.947978271484375,-1.0780243873596191,0.7130324840545654,0.6397286057472229
1764634058286725400,3.964725341796875,-1.0283915996551514,0.46471574902534485,0.8411614298820496
1764634058303480800,3.981480712890625,-1.1554516553878784,0.5975789427757263,1.1191051006317139
1764634058320224000,3.99822412109375,-1.4700472354888916,1.105207920074463,1.2796099185943604
1764634058336977400,4.014977294921875,-1.7266106605529785,1.8674150705337524,1.2705997228622437
1764634058353720000,4.031719970703125,-1.8248071670532227,2.5784621238708496,1.2211196422576904
1764634058370467000,4.048467041015625,-1.7944166660308838,2.8548786640167236,1.272737741470337
1764634058387195000,4.06519482421875,-1.6694947481155396,2.7928760051727295,1.4605787992477417
1764634058403962600,4.081962646484375,-1.5774067640304565,2.6229026317596436,1.7928894758224487
1764634058420690400,4.0986904296875,-1.4947872161865234,2.390010356903076,2.172389507293701
1764634058437437700,4.115437744140625,-1.4110987186431885,2.247373342514038,2.465604782104492
1764634058454195700,4.13219580078125,-1.362076759338379,2.2232439517974854,2.6397013664245605
1764634058470950000,4.148949951171875,-1.303891897201538,2.2015583515167236,2.7148377895355225
1764634058487690200,4.165690185546875,-1.2565498352050781,2.188119411468506,2.761416435241699
1764634058504438800,4.182438720703125,-1.255022644996643,2.163379192352295,2.7701210975646973
1764634058521185000,4.19918505859375,-1.260367751121521,2.180788993835449,2.735454559326172
1764634058537928000,4.215927978515625,-1.2356276512145996,2.2634084224700928,2.705522060394287
1764634058554681600,4.232681640625,-1.1844676733016968,2.2927300930023193,2.666274070739746
1764634058571417600,4.24941748046875,-1.1346821784973145,2.2203423976898193,2.6650524139404297
1764634058588170800,4.266170654296875,-1.1172724962234497,2.1812469959259033,2.648711681365967
1764634058604915700,4.282915771484375,-1.1238393783569336,2.1571178436279297,2.5915958881378174
1764634058621665800,4.299665771484375,-1.1711814403533936,2.0609066486358643,2.5134050846099854
1764634058638395100,4.31639501953125,-1.288467526435852,2.0199787616729736,2.4379632472991943
1764634058655157000,4.333156982421875,-1.4640913009643555,2.009593963623047,2.3458752632141113
1764634058671902700,4.34990283203125,-1.5262467861175537,2.174833059310913,2.2514965534210205
1764634058688650500,4.366650390625,-1.4520267248153687,2.425745964050293,2.136043071746826
1764634058705399300,4.3833994140625,-1.3078625202178955,2.559830904006958,2.1481075286865234
1764634058722138400,4.400138427734375,-1.1627819538116455,2.4970643520355225,2.3435845375061035
1764634058738887400,4.416887451171875,-1.0228939056396484,2.1412353515625,2.5395195484161377
1764634058755634700,4.433634765625,-0.8799513578414917,1.7052303552627563,2.5842654705047607
1764634058772389600,4.4503896484375,-0.7570147514343262,1.439351201057434,2.4524712562561035
1764634058789125400,4.46712548828125,-0.6815729141235352,1.4184291362762451,2.199725866317749
1764634058805875700,4.483875732421875,-0.6270532011985779,1.57313072681427,1.9937114715576172
1764634058822621400,4.500621337890625,-0.6091853380203247,1.6781995296478271,1.843591332435608
1764634058839368000,4.517367919921875,-0.5936083197593689,1.6581937074661255,1.7105754613876343
1764634058856114700,4.53411474609375,-0.5229006409645081,1.6528486013412476,1.679115891456604
1764634058872861200,4.550861083984375,-0.41340306401252747,1.6795740127563477,1.6998852491378784
1764634058889623600,4.56762353515625,-0.3222314119338989,1.6392568349838257,1.6667457818984985
1764634058906351000,4.58435107421875,-0.22128593921661377,1.5256359577178955,1.5102115869522095
1764634058923084800,4.601084716796875,-0.08567385375499725,1.467145562171936,1.3561208248138428
1764634058939847200,4.61784716796875,0.0403171069920063,1.3336715698242188,1.1882855892181396
1764634058956593700,4.63459375,0.11438451707363129,1.0421360731124878,1.007927656173706
1764634058973340200,4.651340087890625,0.17379115521907806,0.7063129544258118,0.8191702961921692
1764634058990086400,4.66808642578125,0.2825251817703247,0.4040873646736145,0.6502660512924194
1764634059006849800,4.684849853515625,0.3865249752998352,0.1713477075099945,0.5138903856277466
1764634059023592400,4.701592529296875,0.41401392221450806,0.040164388716220856,0.43737950921058655
1764634059040338400,4.71833837890625,0.399200439453125,0.04948008432984352,0.38408151268959045
1764634059057085400,4.73508544921875,0.35384368896484375,0.12003502249717712,0.2945897579193115
1764634059073832700,4.751832763671875,0.2874121069908142,0.15882496535778046,0.21212296187877655
1764634059090578200,4.768578125,0.21868975460529327,0.12431107461452484,0.1270599663257599
1764634059107325200,4.7853251953125,0.17333301901817322,0.08155050873756409,0.05696318298578262
1764634059124071400,4.802071533203125,0.1365283876657486,0.04535674303770065,-0.020922135561704636
1764634059140813000,4.81881298828125,0.09789115190505981,0.005192354787141085,-0.11438451707363129
1764634059157569000,4.835569091796875,0.05742133408784866,-0.07330382615327835,-0.21380282938480377
1764634059174311200,4.852311279296875,0.038026362657547,-0.1310305893421173,-0.3338378667831421
1764634059191057200,4.86905712890625,0.03344487398862839,-0.1644754707813263,-0.4369213581085205
1764634059207804400,4.885804443359375,0.03329215571284294,-0.23151792585849762,-0.5126686692237854
1764634059224542200,4.902542236328125,0.03344487398862839,-0.35903605818748474,-0.5737552046775818
1764634059241304300,4.91930419921875,0.06750060617923737,-0.42699480056762695,-0.5439754724502563
1764634059258043400,4.93604345703125,0.1215621829032898,-0.403781920671463,-0.4363104999065399
1764634059274787000,4.952787109375,0.16401731967926025,-0.3214678466320038,-0.3240640163421631
1764634059291519500,4.96951953125,0.1950187236070633,-0.22281309962272644,-0.247094988822937
1764634059308273200,4.986273193359375,0.21609358489513397,-0.13607023656368256,-0.23151792585849762
1764634059325016000,5.00301611328125,0.2203696370124817,-0.13026700913906097,-0.32589662075042725
1764634059341762600,5.019762451171875,0.22098049521446228,-0.21242839097976685,-0.4977024495601654
1764634059358508800,5.0365087890625,0.20402899384498596,-0.36590829491615295,-0.6695083379745483
1764634059375254000,5.05325390625,0.20173825323581696,-0.5128213763237,-0.8520042896270752
1764634059392003000,5.070003173828125,0.20891591906547546,-0.5791002511978149,-1.0265589952468872
1764634059408748800,5.086748779296875,0.20066922903060913,-0.6786713004112244,-1.1606439352035522
1764634059425494500,5.10349462890625,0.19089539349079132,-0.8773552179336548,-1.2760975360870361
1764634059442238000,5.120238037109375,0.20433442294597626,-1.007622241973877,-1.3894129991531372
1764634059458991000,5.1369912109375,0.2015855312347412,-1.105513334274292,-1.4433218240737915
1764634059475734500,5.153734619140625,0.20204368233680725,-1.1914926767349243,-1.471268892288208
1764634059492480500,5.17048046875,0.206777885556221,-1.239292860031128,-1.5998560190200806
1764634059509225500,5.1872255859375,0.1927279829978943,-1.2311989068984985,-1.7292068004608154
1764634059525976000,5.20397607421875,0.15577064454555511,-1.3006848096847534,-1.716684103012085
1764634059542720500,5.220720458984375,0.19837848842144012,-1.4440854787826538,-1.6303993463516235
1764634059559466800,5.237466796875,0.30253100395202637,-1.5474743843078613,-1.6345226764678955
1764634059576210200,5.254210205078125,0.41951170563697815,-1.5928311347961426,-1.7331774234771729
1764634059592962300,5.27096240234375,0.4769330322742462,-1.6479617357254028,-1.930334210395813
1764634059609689900,5.28768994140625,0.5151121020317078,-1.6268868446350098,-2.1934642791748047
1764634059626452200,5.3044521484375,0.49357911944389343,-1.5068517923355103,-2.454303741455078
1764634059643198700,5.32119873046875,0.4363104999065399,-1.3978123664855957,-2.568230152130127
1764634059659941000,5.337941162109375,0.4001167416572571,-1.3515393733978271,-2.4943156242370605
1764634059676697000,5.354697021484375,0.4940372705459595,-1.3469579219818115,-2.347249746322632
1764634059693451500,5.371451416015625,0.5958990454673767,-1.3668110370635986,-2.338697671890259
1764634059710183400,5.388183349609375,0.6994407176971436,-1.4275920391082764,-2.3359487056732178
1764634059726933000,5.40493310546875,0.7681630253791809,-1.570534586906433,-2.306321620941162
1764634059743678500,5.421678466796875,0.8529205918312073,-1.7482963800430298,-2.2731823921203613
1764634059760420400,5.43842041015625,0.8921687006950378,-1.8251125812530518,-2.3316726684570312
1764634059777174800,5.4551748046875,0.8914051055908203,-1.7930421829223633,-2.3441953659057617
1764634059793917700,5.471917724609375,0.969443142414093,-1.722640037536621,-2.2678372859954834
1764634059810664200,5.488664306640625,1.0682506561279297,-1.652695894241333,-2.2843306064605713
1764634059827407400,5.505407470703125,1.1475104093551636,-1.7279850244522095,-2.322662353515625
1764634059844159700,5.52215966796875,1.150259256362915,-2.00699782371521,-2.2017111778259277
1764634059860903200,5.538903076171875,1.1207849979400635,-2.3023509979248047,-2.0080668926239014
1764634059877650400,5.555650390625,1.111163854598999,-2.308154344558716,-1.7895296812057495
1764634059894396000,5.57239599609375,1.089020013809204,-2.1681134700775146,-1.7719674110412598
1764634059911142700,5.589142578125,1.0601565837860107,-1.940413475036621,-1.9883663654327393
1764634059927889400,5.605889404296875,1.0235047340393066,-1.7777706384658813,-2.182621479034424
1764634059944636200,5.62263623046875,0.9430232048034668,-1.7325665950775146,-2.2178990840911865
1764634059961382000,5.6393818359375,0.8274169564247131,-1.7197383642196655,-2.1980459690093994
1764634059978145000,5.65614501953125,0.8448266386985779,-1.6769778728485107,-2.149634838104248
1764634059994888700,5.672888671875,1.0697777271270752,-1.7046194076538086,-2.0021109580993652
1764634060011634400,5.689634521484375,1.257924199104309,-1.8055649995803833,-1.706910252571106
1764634060028381000,5.706380859375,1.2823588848114014,-1.8373299837112427,-1.4294246435165405
1764634060045128200,5.723128173828125,1.2011138200759888,-1.7171422243118286,-1.291369080543518
1764634060061874000,5.7398740234375,1.1201741695404053,-1.5390750169754028,-1.2431107759475708
1764634060078621000,5.756620849609375,1.1181888580322266,-1.4205671548843384,-1.1696542501449585
1764634060095347500,5.773347412109375,1.1386528015136719,-1.3475687503814697,-1.0340421199798584
1764634060112114000,5.790114013671875,1.1204795837402344,-1.2965614795684814,-0.9124799370765686
1764634060128860700,5.806860595703125,1.1003210544586182,-1.3110694885253906,-0.925308108329773
1764634060145602600,5.8236025390625,1.0781772136688232,-1.3874276876449585,-0.9825767278671265
1764634060162356500,5.8403564453125,1.0001391172409058,-1.408349871635437,-0.8775079250335693
1764634060179100000,5.857099853515625,0.9243918061256409,-1.3987287282943726,-0.5740606188774109
1764634060195846000,5.873845947265625,0.8701775670051575,-1.258840560913086,-0.29764407873153687
1764634060212593200,5.89059326171875,0.8367326855659485,-1.024420976638794,-0.21303924918174744
1764634060229322500,5.907322509765625,0.8272642493247986,-0.8113817572593689,-0.2588541507720947
1764634060246068700,5.92406884765625,0.8181012868881226,-0.6534730792045593,-0.31261029839515686
1764634060262822700,5.94082275390625,0.7806857824325562,-0.5845980644226074,-0.3689626157283783
1764634060279565800,5.95756591796875,0.7622070908546448,-0.5386304259300232,-0.43539419770240784
1764634060296311600,5.9743115234375,0.7432702779769897,-0.47739118337631226,-0.4876231849193573
1764634060313058600,5.99105859375,0.6947064995765686,-0.44318273663520813,-0.4524984359741211
1764634060329785300,6.007785400390625,0.6695083379745483,-0.48747047781944275,-0.35185837745666504
1764634060346550300,6.02455029296875,0.6533203721046448,-0.6059783101081848,-0.21884247660636902
1764634060363297300,6.04129736328125,0.617584764957428,-0.7420485615730286,-0.06841690838336945
1764634060380042000,6.0580419921875,0.6021603941917419,-0.8246681094169617,0.012675453908741474
1764634060396789800,6.074789794921875,0.6113234162330627,-0.8323038816452026,0.021380282938480377
1764634060413541400,6.091541259765625,0.6327036619186401,-0.7707592248916626,-0.00931569468230009
1764634060430283800,6.10828369140625,0.618195652961731,-0.5164865851402283,-0.11927144229412079
1764634060447030500,6.125030517578125,0.44715335965156555,0.08628471940755844,-0.39477166533470154
1764634060463776800,6.14177685546875,0.19135354459285736,0.4115704596042633,-0.46563202142715454
1764634060480523500,6.1585234375,-0.03573561832308769,0.26481008529663086,-0.25106561183929443
1764634060497269200,6.175269287109375,-0.17211128771305084,-0.012675453908741474,0.052839845418930054
1764634060514016300,6.192016357421875,-0.19135354459285736,-0.07651086896657944,0.18906278908252716
1764634060530762800,6.2087626953125,-0.16462817788124084,0.03084869496524334,0.14355333149433136
1764634060547509500,6.225509521484375,-0.12736541032791138,0.1635591685771942,0.053297992795705795
1764634060564255500,6.24225537109375,-0.11239920556545258,0.21090123057365417,-0.0027488935738801956
1764634060581002000,6.259001953125,-0.1007927656173706,0.18845193088054657,-0.016951510682702065
1764634060597764000,6.27576416015625,-0.0884227454662323,0.12476922571659088,0.014049900695681572
1764634060614508300,6.29250830078125,-0.07925976812839508,-0.0006108652451075613,0.07192938029766083
1764634060631255000,6.309255126953125,-0.07880161702632904,-0.0731511116027832,0.11102475970983505
1764634060647989800,6.32598974609375,-0.10002918541431427,-0.04917465150356293,0.13545936346054077
1764634060664747300,6.342747314453125,-0.1463022232055664,0.027488935738801956,0.1540907621383667
1764634060681478100,6.35947802734375,-0.20631973445415497,0.13744467496871948,0.12660181522369385
1764634060698227200,6.376227294921875,-0.2942843437194824,0.2857322096824646,0.07192938029766083
1764634060714974000,6.392973876953125,-0.3727805018424988,0.4398229718208313,0.03787364438176155
1764634060731720200,6.40972021484375,-0.41661009192466736,0.5322163701057434,0.028557950630784035
1764634060748467200,6.42646728515625,-0.4297437071800232,0.5354233980178833,0.05421429127454758
1764634060765213000,6.443212890625,-0.43508878350257874,0.517250120639801,0.10720685124397278
1764634060781959400,6.45995947265625,-0.4378376603126526,0.5057964324951172,0.1722639948129654
1764634060798706200,6.4767060546875,-0.44089198112487793,0.4668537676334381,0.18310685455799103
1764634060815453000,6.493452880859375,-0.44654250144958496,0.42562034726142883,0.14996741712093353
1764634060832194800,6.51019482421875,-0.46334129571914673,0.4401284158229828,0.11957687139511108
1764634060848949800,6.52694970703125,-0.5157229900360107,0.5364924073219299,0.13759739696979523
1764634060865681000,6.543680908203125,-0.5992587804794312,0.6690501570701599,0.18249599635601044
1764634060882443000,6.560443115234375,-0.6664539575576782,0.7354817390441895,0.2353358417749405
1764634060899190300,6.577190185546875,-0.7096726894378662,0.7189884185791016,0.3315471112728119
1764634060915931400,6.593931396484375,-0.7826710939407349,0.7063129544258118,0.4951062798500061
1764634060932665600,6.61066552734375,-0.9392052888870239,0.8071057200431824,0.6528622508049011
1764634060949428500,6.627428466796875,-1.1325441598892212,0.9929614663124084,0.8460483551025391
1764634060966155300,6.6441552734375,-1.3292428255081177,1.31916344165802,1.1142182350158691
1764634060982917400,6.66091748046875,-1.5066990852355957,1.68201744556427,1.3290899991989136
1764634060999663900,6.677663818359375,-1.615127682685852,2.017840623855591,1.452942967414856
1764634061016395300,6.694395263671875,-1.644449234008789,2.1960606575012207,1.5309810638427734
1764634061033156900,6.711156982421875,-1.5859588384628296,2.124589204788208,1.7064520120620728
1764634061049889000,6.727888916015625,-1.4856243133544922,1.8782578706741333,2.004096269607544
1764634061066645000,6.74464501953125,-1.42637038230896,1.624901533126831,2.2715024948120117
1764634061083396900,6.76139697265625,-1.3747522830963135,1.5317445993423462,2.4326181411743164
1764634061100142600,6.778142578125,-1.3135130405426025,1.5644259452819824,2.4940099716186523
1764634061116889300,6.794889404296875,-1.2826642990112305,1.640020489692688,2.551278591156006
1764634061133634600,6.811634521484375,-1.272737741470337,1.6690365076065063,2.646420955657959
1764634061150396000,6.82839599609375,-1.282817006111145,1.6082555055618286,2.710409164428711
1764634061167125200,6.845125244140625,-1.3104586601257324,1.5891659259796143,2.7394251823425293
1764634061183875000,6.861875,-1.3041973114013672,1.705993890762329,2.693915843963623
1764634061200621800,6.878621826171875,-1.2699888944625854,1.870469331741333,2.643824815750122
1764634061217368600,6.89536865234375,-1.2861768007278442,2.032806873321533,2.5981626510620117
1764634061234114300,6.9121142578125,-1.3466523885726929,2.1757493019104004,2.5244007110595703
1764634061250861300,6.928861328125,-1.3607022762298584,2.286926746368408,2.5195136070251465
1764634061267603200,6.945603271484375,-1.278388261795044,2.283872365951538,2.5056164264678955
1764634061284354600,6.9623544921875,-1.143081545829773,2.2598960399627686,2.5442538261413574
1764634061301100300,6.979100341796875,-1.0282388925552368,2.211332082748413,2.6308438777923584
1764634061317847000,6.995846923828125,-0.884227454662323,2.1923954486846924,2.660470962524414
1764634061334579000,7.012578857421875,-0.7535023093223572,2.222633123397827,2.6203064918518066
1764634061351340300,7.02934033203125,-0.6423248052597046,2.2771530151367188,2.638174295425415
1764634061368086300,7.046086181640625,-0.570853590965271,2.216066360473633,2.621070146560669
1764634061384832800,7.062832763671875,-0.5479460954666138,1.993406057357788,2.5465445518493652
1764634061401564200,7.079564208984375,-0.5299255847930908,1.7789922952651978,2.426051378250122
1764634061418326300,7.096326171875,-0.49525898694992065,1.6345226764678955,2.2487475872039795
1764634061435069400,7.1130693359375,-0.41890084743499756,1.5152512788772583,2.032654047012329
1764634061451812900,7.129812744140625,-0.3225368559360504,1.4048373699188232,1.8445075750350952
1764634061468546300,7.14654638671875,-0.2538145184516907,1.3180944919586182,1.7829629182815552
1764634061485325600,7.16332568359375,-0.2275473028421402,1.246165156364441,1.7944166660308838
1764634061502039300,7.180039306640625,-0.19624045491218567,1.1740829944610596,1.7424931526184082
1764634061518812000,7.19681201171875,-0.16019940376281738,1.0813841819763184,1.6308574676513672
1764634061535576300,7.213576416015625,-0.10735956579446793,0.9233227968215942,1.4653129577636719
1764634061552316400,7.23031640625,-0.03039054572582245,0.6937901973724365,1.3045027256011963
1764634061576492800,7.254492919921875,0.10797043144702911,0.4709770977497101,1.214094638824463
1764634061589888800,7.267888671875,0.16432274878025055,0.46273043751716614,1.1650726795196533
1764634061606726100,7.28472607421875,0.24862214922904968,0.46441030502319336,1.0613783597946167
1764634061623472600,7.30147265625,0.3228422701358795,0.4178318381309509,0.9363036751747131
1764634061640218000,7.318218017578125,0.31383201479911804,0.260992169380188,0.8408560156822205
1764634061656964400,7.33496435546875,0.2736676335334778,0.08231408894062042,0.7290676832199097
1764634061673710800,7.3517109375,0.21349740028381348,-0.1212567538022995,0.5905539989471436
1764634061690458600,7.368458740234375,0.09697485715150833,-0.20143280923366547,0.5018258094787598
1764634061707220700,7.385220703125,-0.010231993161141872,-0.09957103431224823,0.3761402666568756
1764634061723958000,7.4019580078125,-0.05772676691412926,0.07498370856046677,0.24190263450145721
1764634061740722000,7.418721923828125,-0.05497787147760391,0.1609629988670349,0.13179416954517365
1764634061757441500,7.435441650390625,-0.04382958263158798,0.06612616032361984,0.04596760869026184
1764634061774189800,7.45218994140625,-0.07070764899253845,-0.22586742043495178,-0.015118914656341076
1764634061790936600,7.4689365234375,-0.08216137439012527,-0.4836525619029999,-0.021532999351620674
1764634061807682600,7.4856826171875,-0.058795779943466187,-0.5581781268119812,-0.04245513305068016
1764634061824430600,7.5024306640625,-0.04306599870324135,-0.432645320892334,-0.08979719132184982
1764634061841176000,7.519176025390625,-0.06001751124858856,-0.22143864631652832,-0.1267545372247696
1764634061857918500,7.53591845703125,-0.07040221989154816,-0.14156801998615265,-0.17959438264369965
1764634061874672400,7.55267236328125,-0.07819075137376785,-0.15790866315364838,-0.25931230187416077
1764634061891416300,7.569416259765625,-0.05971207842230797,-0.16462817788124084,-0.33368512988090515
1764634061908158000,7.586157958984375,-0.04581489413976669,-0.13240504264831543,-0.3604104816913605
1764634061924912000,7.602912109375,-0.03039054572582245,-0.027488935738801956,-0.3280346393585205
1764634061941654500,7.619654541015625,0.001679879380390048,0.10430523753166199,-0.2877175211906433
1764634061958404600,7.636404541015625,0.054367005825042725,0.1693623960018158,-0.3199406862258911
1764634061975155500,7.653155517578125,0.09162978827953339,0.10354165732860565,-0.40744712948799133
1764634061991907000,7.669906982421875,0.08552113175392151,-0.1189660057425499,-0.5262604355812073
1764634062008637400,7.686637451171875,0.05406157299876213,-0.31383201479911804,-0.650418758392334
1764634062025380000,7.703380126953125,0.022907447069883347,-0.37308594584465027,-0.764955997467041
1764634062042118700,7.72011865234375,0.027641652151942253,-0.31123584508895874,-0.9104946255683899
1764634062058880000,7.7368798828125,0.04337143152952194,-0.2967278063297272,-1.1595749855041504
1764634062075626200,7.753626220703125,-0.0024434609804302454,-0.4674646258354187,-1.43751859664917
1764634062092358700,7.770358642578125,-0.038637228310108185,-0.8234463334083557,-1.6740761995315552
1764634062109136000,7.787135986328125,0.018325956538319588,-1.0714576244354248,-1.834122896194458
1764634062125874000,7.8038740234375,0.13561208546161652,-1.1093312501907349,-1.9194912910461426
1764634062142627000,7.820626953125,0.21838432550430298,-1.0111347436904907,-1.934762954711914
1764634062159354000,7.83735400390625,0.23258693516254425,-0.9747881889343262,-1.8979582786560059
1764634062176114400,7.854114501953125,0.21502456068992615,-1.1872166395187378,-1.8791742324829102
1764634062192862000,7.870862060546875,0.2880229651927948,-1.3573426008224487,-2.0189096927642822
1764634062209595100,7.88759521484375,0.3462078869342804,-1.4373658895492554,-2.2603540420532227
1764634062226330000,7.904330078125,0.41813725233078003,-1.3524556159973145,-2.4277312755584717
1764634062243096300,7.921096435546875,0.46990808844566345,-1.3240504264831543,-2.3817636966705322
1764634062259837700,7.937837646484375,0.561079740524292,-1.4821118116378784,-2.135584831237793
1764634062276584200,7.954584228515625,0.6178901791572571,-1.6792685985565186,-2.0954205989837646
1764634062293317600,7.971317626953125,0.6611089110374451,-1.6250542402267456,-2.280359983444214
1764634062310062000,7.98806201171875,0.6255260109901428,-1.4498887062072754,-2.442850112915039
1764634062326823700,8.00482373046875,0.5884159207344055,-1.4060590267181396,-2.4518604278564453
1764634062343570200,8.021570068359376,0.5780312418937683,-1.463022232055664,-2.375349521636963
1764634062360301600,8.038301513671875,0.5542075037956238,-1.426675796508789,-2.437199592590332
1764634062377063400,8.0550634765625,0.5366451144218445,-1.3058772087097168,-2.5495989322662354
1764634062393784600,8.07178466796875,0.5858197808265686,-1.171334147453308,-2.6945266723632812
1764634062410557000,8.088556884765625,0.6565274000167847,-1.1242974996566772,-2.785545587539673
1764634062427298800,8.105298828125,0.7128797173500061,-1.1476631164550781,-2.7844765186309814
1764634062444049000,8.122048828125,0.7081455588340759,-1.3287845849990845,-2.68872332572937
1764634062460795400,8.13879541015625,0.7512115240097046,-1.455691933631897,-2.5722007751464844
1764634062477537000,8.155537109375,0.8177958726882935,-1.5247195959091187,-2.5024094581604004
1764634062494284300,8.1722841796875,0.8109236359596252,-1.4926491975784302,-2.5106561183929443
1764634062511035100,8.18903515625,0.7835873961448669,-1.3822352886199951,-2.520735502243042
1764634062527781400,8.205781494140625,0.7848091125488281,-1.427744746208191,-2.3632848262786865
1764634062544528000,8.22252783203125,0.7623597979545593,-1.5972598791122437,-2.1419990062713623
1764634062561275600,8.239275634765624,0.788016140460968,-1.6620116233825684,-1.9478965997695923
1764634062578032600,8.25603271484375,0.764345109462738,-1.577559471130371,-1.8784105777740479
1764634062594784800,8.27278466796875,0.7382306456565857,-1.4775303602218628,-1.7576119899749756
1764634062611510500,8.289510498046875,0.6742424964904785,-1.4437800645828247,-1.4941763877868652
1764634062628258800,8.3062587890625,0.6659958362579346,-1.3868168592453003,-1.260062336921692
1764634062645006600,8.323006591796876,0.6704245805740356,-1.3825408220291138,-1.2376129627227783
1764634062661753300,8.33975341796875,0.6757696866989136,-1.3032809495925903,-1.440267562866211
1764634062678500900,8.3565009765625,0.665232241153717,-1.3478741645812988,-1.5289957523345947
1764634062695247000,8.3732470703125,0.6183483600616455,-1.5496124029159546,-1.275792121887207
1764634062712004900,8.3900048828125,0.5505422949790955,-1.8584047555923462,-0.8003861904144287
1764634062728753200,8.406753173828125,0.5254968404769897,-2.0008890628814697,-0.34147366881370544
1764634062745473800,8.423473876953125,0.6046038866043091,-1.8987219333648682,-0.16035212576389313
1764634062762233300,8.4402333984375,0.7023423314094543,-1.6310101747512817,-0.2483167201280594
1764634062778978800,8.456978759765626,0.7673994898796082,-1.3290899991989136,-0.43905940651893616
1764634062795725000,8.47372509765625,0.7805330753326416,-1.1369729042053223,-0.589790403842926
1764634062812471600,8.490471435546874,0.7437284588813782,-1.023046612739563,-0.6748533844947815
1764634062829227300,8.507227294921876,0.6389650702476501,-0.9425650835037231,-0.6795876026153564
1764634062845960400,8.52396044921875,0.5561928153038025,-0.8872817754745483,-0.5845980644226074
1764634062862715000,8.54071484375,0.5707008838653564,-0.8901833891868591,-0.44486260414123535
1764634062879457500,8.55745751953125,0.6676757335662842,-0.8946121335029602,-0.3404046595096588
1764634062896205000,8.574205078125,0.7150177955627441,-0.8246681094169617,-0.2756529450416565
1764634062912943900,8.59094384765625,0.6921103000640869,-0.7405213713645935,-0.26404649019241333
1764634062929690600,8.607690673828126,0.6200281977653503,-0.6725626587867737,-0.2672535479068756
1764634062946434600,8.6244345703125,0.5305364727973938,-0.5908594131469727,-0.2519819140434265
1764634062963192000,8.641192138671874,0.4625777006149292,-0.4980078935623169,-0.21533000469207764
1764634062979936300,8.657936279296875,0.4285219609737396,-0.3930917978286743,-0.15332718193531036
1764634062996679000,8.674678955078125,0.4004221558570862,-0.30634891986846924,-0.11056660860776901
1764634063013433300,8.691433349609374,0.38835757970809937,-0.2356412708759308,-0.08964447677135468
1764634063030175000,8.708175048828124,0.3856086730957031,-0.1889100819826126,-0.08078692853450775
1764634063046922200,8.724922119140626,0.40653082728385925,-0.18875735998153687,-0.08185594528913498
1764634063063668700,8.741668701171875,0.4265366494655609,-0.23167064785957336,-0.1160643994808197
1764634063080415200,8.758415283203124,0.39996400475502014,-0.2603813111782074,-0.1569923609495163
1764634063097147400,8.7751474609375,0.32268956303596497,-0.2997821271419525,-0.15745051205158234
1764634063113924400,8.79192431640625,0.26801711320877075,-0.37201693654060364,-0.11407908797264099
1764634063130663200,8.8086630859375,0.2678644061088562,-0.44196099042892456,-0.03375030308961868
1764634063147418400,8.82541845703125,0.29856038093566895,-0.4908302128314972,0.017867809161543846
1764634063164133400,8.84213330078125,0.30634891986846924,-0.47571131587028503,0.004123340360820293
1764634063180904200,8.858904296875,0.2538145184516907,-0.42791110277175903,-0.04703662544488907
1764634063197649700,8.875649658203125,0.15042556822299957,-0.35155296325683594,-0.09773843735456467
1764634063214387700,8.8923876953125,0.019089538604021072,-0.2793181240558624,-0.10064005106687546
1764634063231110400,8.9091103515625,-0.08765916526317596,-0.15332718193531036,-0.06780604273080826
1764634063247880000,8.9258798828125,-0.16783522069454193,0.055894169956445694,-0.04138612002134323
1764634063264626700,8.942626708984376,-0.21823160350322723,0.26801711320877075,-0.007941247895359993
1764634063281373200,8.959373291015625,-0.30802878737449646,0.43157628178596497,0.027183502912521362
1764634063298123300,8.976123291015625,-0.4352414906024933,0.5404630303382874,0.06933320313692093
1764634063314868200,8.9928681640625,-0.5815436840057373,0.6743952035903931,0.11560624837875366
1764634063331606500,9.0096064453125,-0.6866125464439392,0.8591819405555725,0.10812314599752426
1764634063348363000,9.026363037109375,-0.7568620443344116,1.06351637840271,0.0981965884566307
1764634063365092400,9.04309228515625,-0.7893906235694885,1.1925616264343262,0.09178250283002853
1764634063381862100,9.059862060546875,-0.7982481718063354,1.2064588069915771,0.12232576310634613
1764634063398615600,9.076615478515626,-0.7968736886978149,1.0751228332519531,0.18936823308467865
1764634063415340800,9.0933408203125,-0.7733554244041443,0.8843801617622375,0.2997821271419525
1764634063432101600,9.1101015625,-0.7499898076057434,0.7162395119667053,0.45142942667007446
1764634063448838100,9.126838134765626,-0.7382306456565857,0.5685628056526184,0.6163630485534668
1764634063465580500,9.14358056640625,-0.7057020664215088,0.5320636034011841,0.7386888265609741
1764634063482334700,9.160334716796875,-0.6944010853767395,0.6010913848876953,0.855516791343689
1764634063499078400,9.177078369140625,-0.6872233748435974,0.650418758392334,1.0346530675888062
1764634063515835400,9.19383544921875,-0.7194465398788452,0.6589708924293518,1.2460123300552368
1764634063532588000,9.210588134765626,-0.8009970784187317,0.6753115057945251,1.4303410053253174
1764634063549329700,9.22732958984375,-0.8871290683746338,0.6960809230804443,1.5302174091339111
1764634063566072600,9.244072509765624,-0.9578366875648499,0.8303185701370239,1.5932892560958862
1764634063582827300,9.2608271484375,-1.0320568084716797,0.9665415287017822,1.7263051271438599
1764634063599569400,9.2775693359375,-1.1229230165481567,1.0531316995620728,1.89979088306427
1764634063616295000,9.294294921875,-1.2035572528839111,1.2359330654144287,1.9466748237609863
1764634063633055000,9.311054931640625,-1.254717230796814,1.4679092168807983,1.8787161111831665
1764634063649783800,9.32778369140625,-1.301142930984497,1.5613715648651123,1.8909333944320679
1764634063666542000,9.3445419921875,-1.3103059530258179,1.4520267248153687,2.043955087661743
1764634063683288600,9.36128857421875,-1.300837516784668,1.1742357015609741,2.2681427001953125
1764634063700036400,9.378036376953125,-1.28434419631958,0.9384417533874512,2.4446825981140137
1764634063716795100,9.394795166015625,-1.286634922027588,0.9469938278198242,2.4978280067443848
1764634063733527600,9.411527587890625,-1.3176363706588745,1.1227703094482422,2.467437505722046
1764634063750275000,9.428275146484374,-1.3552045822143555,1.2487612962722778,2.4098634719848633
1764634063767022000,9.44502197265625,-1.3353514671325684,1.3026701211929321,2.4352142810821533
1764634063783767600,9.461767578125,-1.278693675994873,1.3318389654159546,2.50408935546875
1764634063800514600,9.4785146484375,-1.2205088138580322,1.2747230529785156,2.5169174671173096
1764634063817260500,9.495260498046875,-1.1676689386367798,1.200197458267212,2.605034828186035
1764634063834008000,9.512008056640624,-1.1620184183120728,1.1771373748779297,2.70292592048645
1764634063850754000,9.528754150390625,-1.1572842597961426,1.1798862218856812,2.652376890182495
1764634063867485000,9.54548486328125,-1.1456778049468994,1.3055717945098877,2.585487127304077
1764634063884246800,9.562246826171876,-1.143081545829773,1.433700680732727,2.490039348602295
1764634063900993500,9.57899365234375,-1.083369493484497,1.5454890727996826,2.3942863941192627
1764634063917752000,9.595751953125,-0.9584475755691528,1.5609134435653687,2.2456934452056885
1764634063934503400,9.61250341796875,-0.8736900091171265,1.5428929328918457,2.059837579727173
1764634063951246000,9.62924609375,-0.8588765263557434,1.479668378829956,1.9500346183776855
1764634063967990500,9.645990478515625,-0.8758280277252197,1.4463762044906616,1.9526307582855225
1764634063984735500,9.662735595703126,-0.8339837789535522,1.4676038026809692,1.989129900932312
1764634064001489400,9.679489501953125,-0.7392996549606323,1.5218180418014526,1.9746218919754028
1764634064018215200,9.696215087890625,-0.631481945514679,1.5897767543792725,1.9187277555465698
1764634064034966000,9.712966064453125,-0.5447390675544739,1.6210836172103882,1.8275561332702637
1764634064051711700,9.729711669921874,-0.45494189858436584,1.5082262754440308,1.677894115447998
1764634064068457700,9.746457763671875,-0.3695734739303589,1.306488037109375,1.627497673034668
1764634064085204500,9.76320458984375,-0.28420504927635193,1.1284208297729492,1.718363881111145
1764634064101952000,9.779951904296874,-0.21151208877563477,0.9392052888870239,1.8000671863555908
1764634064118706700,9.796706787109375,-0.13240504264831543,0.8058840036392212,1.754557728767395
1764634064135427800,9.813427734375,-0.08994990587234497,0.7380779385566711,1.5564846992492676
1764634064152195800,9.83019580078125,-0.07299839705228806,0.7545713186264038,1.3100005388259888
1764634064168938000,9.84693798828125,-0.0708603709936142,0.775340735912323,1.0491610765457153
1764634064185679600,9.8636796875,-0.10995574295520782,0.7929030656814575,0.8249735236167908
1764634064202432300,9.880432373046874,-0.14340060949325562,0.6710354685783386,0.6359107494354248
1764634064219178200,9.89717822265625,-0.15683965384960175,0.4737260043621063,0.517250120639801
1764634064235922200,9.913922119140626,-0.15515977144241333,0.3419318199157715,0.49128836393356323
1764634064252671000,9.9306708984375,-0.14508049190044403,0.3023782968521118,0.47601673007011414
1764634064269415700,9.947415771484375,-0.13744467496871948,0.30482175946235657,0.4156937897205353
1764634064286159400,9.964159423828125,-0.16630806028842926,0.2776382565498352,0.34025195240974426
1764634064302912800,9.980912841796876,-0.2070833146572113,0.25534167885780334,0.3269656300544739
1764634064319655200,9.9976552734375,-0.2050980031490326,0.28619036078453064,0.35934147238731384
1764634064336400400,10.014400390625,-0.17241671681404114,0.32330042123794556,0.3602577745914459
1764634064353168000,10.03116796875,-0.1394299864768982,0.36560285091400146,0.31871894001960754
1764634064369866200,10.0478662109375,-0.10415252298116684,0.35033121705055237,0.2577851414680481
1764634064386658800,10.064658935546875,-0.07666359096765518,0.2597704529762268,0.2197587788105011
1764634064403391700,10.081391845703125,-0.05803219974040985,0.17012597620487213,0.19456058740615845
1764634064420139500,10.098139404296875,-0.05910121276974678,0.13271047174930573,0.1420261710882187
1764634064436881700,10.114881591796875,-0.043218716979026794,0.09911288321018219,0.06673702597618103
1764634064453627100,10.131627197265624,-0.024129176512360573,0.05360342562198639,0.007024950347840786
1764634064470373600,10.14837353515625,-0.01237002108246088,0.010079276748001575,-0.03390302136540413
1764634064487120400,10.165120361328125,0.010079276748001575,-0.09285151958465576,-0.09422596544027328
1764634064503867600,10.18186767578125,0.007024950347840786,-0.17867808043956757,-0.12293662875890732
1764634064520629500,10.19862939453125,-0.0012217304902151227,-0.15103642642498016,-0.10873401165008545
1764634064537373000,10.215373046875,0.0007635815418325365,-0.058184914290905,-0.0708603709936142
1764634064554114000,10.232114013671875,0.011453723534941673,0.08017606288194656,-0.0403171069920063
1764634064570854100,10.248854248046875,0.021380282938480377,0.1849394589662552,-0.07024950534105301
1764634064587612200,10.265612060546875,0.045204028487205505,0.22372940182685852,-0.15714508295059204
1764634064604358700,10.282358642578124,0.060475658625364304,0.18845193088054657,-0.27550023794174194
1764634064621076000,10.299075927734375,0.06627888232469559,0.08246681094169617,-0.3715587854385376
1764634064637839600,10.315839599609374,0.0780380368232727,-0.022602014243602753,-0.4404338300228119
1764634064654584800,10.332584716796875,0.10644327104091644,-0.09758572280406952,-0.5117523670196533
1764634064671321000,10.349321044921876,0.13515393435955048,-0.1765400618314743,-0.6304129362106323
1764634064688078000,10.366078125,0.1368338167667389,-0.21563543379306793,-0.7806857824325562
1764634064704825300,10.382825439453125,0.15286903083324432,-0.29107728600502014,-0.9471465349197388
1764634064721567700,10.399567626953125,0.15485434234142303,-0.4043927788734436,-1.0337367057800293
1764634064738317300,10.4163173828125,0.16539175808429718,-0.4801400899887085,-1.0557278394699097
1764634064755062300,10.433062255859374,0.20005837082862854,-0.4775438904762268,-1.0555751323699951
1764634064771806000,10.449805908203125,0.2382374405860901,-0.4334088861942291,-1.1006264686584473
1764634064788557000,10.46655712890625,0.24938572943210602,-0.41813725233078003,-1.2090550661087036
1764634064805303300,10.48330322265625,0.2519819140434265,-0.5267185568809509,-1.36482572555542
1764634064822052400,10.50005224609375,0.26083946228027344,-0.6600399017333984,-1.469589114189148
1764634064838797300,10.51679736328125,0.27748554944992065,-0.7787004709243774,-1.5112806558609009
1764634064855542500,10.53354248046875,0.30695977807044983,-0.7918340563774109,-1.519832730293274
1764634064872273700,10.550273681640626,0.35216382145881653,-0.7055493593215942,-1.5285375118255615
1764634064889035800,10.567035888671874,0.41951170563697815,-0.5621487498283386,-1.5822937488555908
1764634064905784800,10.583784912109374,0.46899178624153137,-0.44577890634536743,-1.8066339492797852
1764634064922526700,10.600526611328124,0.46334129571914673,-0.43218716979026794,-2.0323486328125
1764634064939288300,10.617288330078125,0.4260784983634949,-0.6722571849822998,-2.0567831993103027
1764634064956034300,10.634034423828124,0.4531092941761017,-0.9726501703262329,-1.9730947017669678
1764634064972782000,10.650781982421876,0.5021312236785889,-1.08718740940094,-1.989129900932312
1764634064989527600,10.667527587890625,0.5183191895484924,-0.9300423264503479,-2.0725131034851074
1764634065006274300,10.6842744140625,0.5006040930747986,-0.565203070640564,-2.182926893234253
1764634065023004200,10.701004150390625,0.46303585171699524,-0.3488040566444397,-2.180788993835449
1764634065039755300,10.71775537109375,0.3978259861469269,-0.569631814956665,-2.102292776107788
1764634065056500500,10.73450048828125,0.3625485301017761,-0.8290968537330627,-2.211332082748413
1764634065073247000,10.7512470703125,0.3672827184200287,-0.9323330521583557,-2.3849706649780273
1764634065089993500,10.767993408203125,0.4332561790943146,-1.0025825500488281,-2.3295345306396484
1764634065106741000,10.784740966796875,0.5511531829833984,-1.2278391122817993,-1.9889771938323975
1764634065123486200,10.801486328125,0.6722571849822998,-1.3946053981781006,-1.8237382173538208
1764634065140233000,10.81823291015625,0.7318165898323059,-1.3344351053237915,-2.0667097568511963
1764634065156973800,10.834973876953125,0.7000515460968018,-1.0968085527420044,-2.5190556049346924
1764634065167643400,10.845643310546874,0.6455318331718445,-0.8761335015296936,-2.696359157562256
1764634065182107000,10.86010693359375,0.5626068711280823,-0.7736608386039734,-2.5970935821533203
1764634065198846500,10.876846435546875,0.5190827250480652,-0.811687171459198,-2.2351558208465576
1764634065215586800,10.8935869140625,0.5410739183425903,-0.7289149761199951,-2.0092885494232178
1764634065232339500,10.91033935546875,0.5389358401298523,-0.6174320578575134,-1.9941695928573608
1764634065249081000,10.9270810546875,0.5400048494338989,-0.5716171264648438,-1.998598337173462
1764634065265835800,10.943835693359375,0.5529857873916626,-0.5988006591796875,-2.0050125122070312
1764634065282562300,10.960562255859376,0.5525276064872742,-0.7160868048667908,-1.9819523096084595
1764634065299325400,10.977325439453125,0.4720461070537567,-0.9915869832038879,-1.8496999740600586
1764634065316067600,10.994067626953125,0.4291328489780426,-1.2350168228149414,-1.7398968935012817
1764634065332818700,11.010818603515625,0.3926336467266083,-1.1632401943206787,-1.810451865196228
1764634065349560300,11.027560302734376,0.3423899710178375,-0.9804387092590332,-1.8574885129928589
1764634065366328300,11.044328369140626,0.31581732630729675,-0.8604037165641785,-1.7857118844985962
1764634065383071000,11.061071044921874,0.3003929853439331,-0.9468411207199097,-1.5134186744689941
1764634065399817200,11.077817138671875,0.31642818450927734,-1.1812607049942017,-1.2101240158081055
1764634065416558600,11.09455859375,0.33948835730552673,-1.3326025009155273,-1.0351111888885498
1764634065433315600,11.111315673828125,0.3911064863204956,-1.3817771673202515,-0.9695958495140076
1764634065450034400,11.128034423828124,0.4651738703250885,-1.3211487531661987,-0.9379835724830627
1764634065466790700,11.144790771484375,0.5396994352340698,-1.2318097352981567,-0.8248208165168762
1764634065483535600,11.16153564453125,0.5917757153511047,-1.1914926767349243,-0.7235698699951172
1764634065500283400,11.178283447265626,0.6520986557006836,-1.2105822563171387,-0.7475463151931763
1764634065517013200,11.19501318359375,0.6667594313621521,-1.1352930068969727,-0.8669704794883728
1764634065533776400,11.2117763671875,0.6125451326370239,-0.9896016716957092,-0.9063712954521179
1764634065550521300,11.228521240234375,0.561079740524292,-0.811687171459198,-0.7790058851242065
1764634065567273500,11.2452734375,0.5826127529144287,-0.694553792476654,-0.5839871764183044
1764634065584042500,11.26204248046875,0.6834055185317993,-0.7249443531036377,-0.47769662737846375
1764634065600775000,11.27877490234375,0.7761042714118958,-0.8006916046142578,-0.47708576917648315
1764634065617516300,11.295516357421874,0.8199338912963867,-0.9024006724357605,-0.526107668876648
1764634065634273000,11.31227294921875,0.8026769161224365,-0.9427177906036377,-0.5835290551185608
1764634065651014400,11.329014404296874,0.7591527700424194,-0.8994990587234497,-0.6459900140762329
1764634065667761400,11.345761474609375,0.7331910133361816,-0.845132052898407,-0.6959282159805298
1764634065684501800,11.362501708984375,0.7295258045196533,-0.8109236359596252,-0.7577783465385437
1764634065701243000,11.379242919921875,0.8016079068183899,-0.8022187948226929,-0.8313875794410706
1764634065717986800,11.39598681640625,0.9503536224365234,-0.8324565887451172,-0.9162978529930115
1764634065734733800,11.41273388671875,1.0134254693984985,-0.9216429591178894,-0.9277516007423401
1764634065751479800,11.429479736328124,1.0122036933898926,-1.1133018732070923,-0.8153523802757263
1764634065768227000,11.44622705078125,1.0186177492141724,-1.3348932266235352,-0.6125451326370239
1764634065784972500,11.46297265625,1.0282388925552368,-1.5309810638427734,-0.3982841372489929
1764634065801736000,11.47973583984375,1.0755809545516968,-1.6142114400863647,-0.21288654208183289
1764634065818473700,11.4964736328125,1.1409435272216797,-1.4202617406845093,-0.13301590085029602
1764634065835231200,11.513231201171875,1.0031934976577759,-1.0435105562210083,-0.1394299864768982
1764634065851971600,11.5299716796875,0.7967209815979004,-0.6911939978599548,-0.18096883594989777
1764634065868716300,11.54671630859375,0.5916230082511902,-0.45234572887420654,-0.1944078654050827
1764634065885451300,11.563451171875,0.3962988257408142,-0.3504839241504669,-0.11224649101495743
1764634065902199000,11.580198974609376,0.20906862616539001,-0.3061962127685547,0.06230825558304787
1764634065918939600,11.596939697265626,0.07467827945947647,-0.2987131178379059,0.1635591685771942
1764634065935696400,11.6136962890625,0,-0.2588541507720947,0.11804971098899841
1764634065952432600,11.6304326171875,-0.0659734457731247,-0.1411098688840866,-0.02168571576476097
1764634065969198800,11.64719873046875,-0.10186178237199783,-0.013897184282541275,-0.1621847152709961
1764634065985932800,11.663932861328124,-0.09300423413515091,0.04184427112340927,-0.2344195395708084
1764634066002695400,11.6806953125,-0.04902193695306778,-0.0009162978967651725,-0.21563543379306793
1764634066019432000,11.697431884765624,0.008704829961061478,-0.11667526513338089,-0.152105450630188
1764634066036183000,11.71418310546875,0.05146539583802223,-0.23640485107898712,-0.1186605766415596
1764634066052934700,11.7309345703125,0.08170322328805923,-0.30833423137664795,-0.12889257073402405
1764634066069670100,11.747670166015626,0.1036943718791008,-0.2142609804868698,-0.2018909603357315
1764634066086413000,11.7644130859375,0.09605856239795685,0.1417207419872284,-0.3901901841163635
1764634066103151400,11.7811513671875,0.07422012835741043,0.4294382631778717,-0.4720461070537567
1764634066119904000,11.797904052734374,0.04749477282166481,0.3978259861469269,-0.33108896017074585
1764634066136653600,11.814653564453126,0.016798794269561768,0.12522737681865692,-0.11652254313230515
1764634066153395700,11.831395751953124,-0.004734205547720194,-0.05406157299876213,0.026114489883184433
1764634066170141400,11.848141357421875,0.041233405470848083,-0.05604688450694084,0.0988074541091919
1764634066186889700,11.8648896484375,0.1033889427781105,-0.03848451003432274,0.1722639948129654
1764634066203636000,11.881635986328124,0.15134187042713165,-0.0659734457731247,0.22571471333503723
1764634066220377300,11.89837744140625,0.19624045491218567,-0.06780604273080826,0.23426681756973267
1764634066237128700,11.915128662109375,0.22617286443710327,-0.04535674303770065,0.1992947906255722
1764634066253878300,11.931878173828125,0.2591595947742462,-0.024129176512360573,0.15241087973117828
1764634066270621700,11.94862158203125,0.26511552929878235,-0.052381694316864014,0.11682797968387604
1764634066287367400,11.965367431640624,0.22418753802776337,-0.062460970133543015,0.08048149943351746
1764634066304125200,11.982125244140626,0.15592335164546967,-0.02626720629632473,0.015271631069481373
1764634066320878600,11.998878662109375,0.06902777403593063,0.023518312722444534,-0.061391957104206085
1764634066337621200,12.015621337890625,-0.015271631069481373,0.047800205647945404,-0.1281289905309677
1764634066354365700,12.03236572265625,-0.08109235763549805,0.04245513305068016,-0.1589776873588562
1764634066371113200,12.04911328125,-0.13744467496871948,0.009621127508580685,-0.11927144229412079
1764634066387859500,12.065859375,-0.16554448008537292,-0.02932153269648552,-0.02229658141732216
1764634066404607000,12.08260693359375,-0.15577064454555511,-0.09376781433820724,0.10919216275215149
1764634066421347000,12.09934716796875,-0.15057829022407532,-0.17379115521907806,0.33276882767677307
1764634066438104000,12.11610400390625,-0.14126259088516235,-0.3023782968521118,0.6217080950737
1764634066454845200,12.13284521484375,-0.12553280591964722,-0.24236078560352325,0.8217664957046509
1764634066471588000,12.149588134765626,-0.18341228365898132,0.10354165732860565,0.773202657699585
1764634066488342800,12.1663427734375,-0.3107776939868927,0.49785518646240234,0.569631814956665
1764634066505085400,12.18308544921875,-0.4821254014968872,0.8176431059837341,0.3929390609264374
1764634066521827600,12.19982763671875,-0.6653849482536316,0.9225592613220215,0.4080579876899719
1764634066538582500,12.21658251953125,-0.8101600408554077,0.8932377099990845,0.6003278493881226
1764634066555324000,12.233323974609375,-0.9005680680274963,0.8242099285125732,0.807563841342926
1764634066572071200,12.2500712890625,-0.9556986689567566,0.8133670687675476,0.9595165848731995
1764634066588814000,12.26681396484375,-1.0505355596542358,0.9080511927604675,1.041372537612915
1764634066605549800,12.2835498046875,-1.189354658126831,1.1154398918151855,1.0995573997497559
1764634066622298600,12.300298583984375,-1.333060622215271,1.2383766174316406,1.1942415237426758
1764634066639044900,12.317044921875,-1.371850609779358,1.0713049173355103,1.318858027458191
1764634066655790000,12.3337900390625,-1.3946053981781006,0.7559457421302795,1.5323554277420044
1764634066672537600,12.35053759765625,-1.4599679708480835,0.5537493228912354,1.8090773820877075
1764634066689283300,12.367283447265624,-1.4921910762786865,0.7240280508995056,1.9854648113250732
1764634066706030300,12.3840302734375,-1.4911220073699951,1.1522445678710938,2.0447187423706055
1764634066722775800,12.40077587890625,-1.5053247213363647,1.5247195959091187,2.0835087299346924
1764634066739521800,12.417521728515625,-1.536631464958191,1.5909985303878784,2.158186912536621
1764634066756269000,12.43426904296875,-1.574352502822876,1.463938593864441,2.2821924686431885
1764634066773016300,12.451016357421874,-1.6079500913619995,1.2811371088027954,2.465452194213867
1764634066789756700,12.467756591796874,-1.6537649631500244,1.1354458332061768,2.6789495944976807
1764634066806509600,12.484509521484375,-1.677894115447998,1.0852020978927612,2.831360340118408
1764634066823255000,12.501255126953126,-1.642922043800354,1.1895073652267456,2.824946403503418
1764634066840006100,12.518006103515624,-1.6036739349365234,1.5601497888565063,2.760958194732666
1764634066856747800,12.534747802734374,-1.6161967515945435,1.8486309051513672,2.6891815662384033
1764634066873495600,12.55149560546875,-1.6195564270019531,1.867262363433838,2.758667469024658
1764634066890243800,12.568243896484375,-1.5934419631958008,1.6409367322921753,2.909092903137207
1764634066907001600,12.585001708984375,-1.5671747922897339,1.4057536125183105,2.9798007011413574
1764634066923746300,12.601746337890624,-1.514182209968567,1.3269519805908203,2.9571986198425293
1764634066940494300,12.618494384765626,-1.383457064628601,1.3397802114486694,2.8933632373809814
1764634066957223400,12.635223388671875,-1.2898420095443726,1.3735305070877075,2.8006644248962402
1764634066973974000,12.65197412109375,-1.253495454788208,1.395827054977417,2.682156562805176
1764634066990719700,12.6687197265625,-1.196379542350769,1.341460108757019,2.5692992210388184
1764634067007467300,12.68546728515625,-1.1270463466644287,1.1395691633224487,2.4808764457702637
1764634067024212700,12.702212646484375,-1.0393872261047363,0.8978192210197449,2.4559836387634277
1764634067040960300,12.718960205078124,-0.8489499688148499,0.7904596328735352,2.3932173252105713
1764634067057721600,12.7357216796875,-0.6214026808738708,0.8582656979560852,2.2624921798706055
1764634067074466300,12.75246630859375,-0.46822822093963623,0.9592111706733704,2.1148154735565186
1764634067091211500,12.76921142578125,-0.4112650156021118,0.9639453291893005,2.0060815811157227
1764634067107954400,12.785954345703125,-0.38499781489372253,0.9071348905563354,1.9677497148513794
1764634067124708900,12.802708984375,-0.347276896238327,0.9237809777259827,1.9721784591674805
1764634067141451800,12.81945166015625,-0.3039054572582245,1.0473284721374512,1.9788979291915894
1764634067158181600,12.836181640625,-0.26450464129447937,1.1869112253189087,1.9055941104888916
1764634067174919400,12.85291943359375,-0.24297164380550385,1.3054190874099731,1.817324161529541
1764634067191673600,12.869673583984374,-0.230448916554451,1.3788756132125854,1.7389806509017944
1764634067208429000,12.886428955078125,-0.19608774781227112,1.3468050956726074,1.5654948949813843
1764634067225163500,12.90316357421875,-0.17043140530586243,1.2414308786392212,1.3460415601730347
1764634067241918000,12.91991796875,-0.13484850525856018,1.0739010572433472,1.126282811164856
1764634067258663400,12.936663330078124,-0.08536841720342636,0.9083566069602966,0.9563095569610596
1764634067275405800,12.95340576171875,-0.03741549700498581,0.8440630435943604,0.8594874143600464
1764634067292172500,12.970172607421874,0.0024434609804302454,0.8147414922714233,0.7761042714118958
1764634067308916700,12.986916748046875,0.0529925599694252,0.731511116027832,0.6974554061889648
1764634067325638100,13.00363818359375,0.10445795953273773,0.6432411074638367,0.6591235995292664
1764634067342380500,13.020380615234375,0.13988813757896423,0.5167919993400574,0.6033821702003479
1764634067359146200,13.037146240234375,0.15974126756191254,0.4489859640598297,0.4824308156967163
1764634067375881500,13.053881591796875,0.15515977144241333,0.4366159439086914,0.2626720666885376
1764634067392635400,13.070635498046874,0.1085812970995903,0.4648684561252594,0.040622539818286896
1764634067409383200,13.087383056640626,0.07590000331401825,0.48197266459465027,-0.09239336848258972
1764634067426111700,13.10411181640625,0.011301007121801376,0.5112941861152649,-0.13301590085029602
1764634067442879200,13.120879150390625,-0.034666601568460464,0.5232060551643372,-0.12079860270023346
1764634067459637200,13.13763720703125,-0.03130684420466423,0.5146539807319641,-0.11545353382825851
1764634067476374500,13.15437451171875,-0.034666601568460464,0.44089198112487793,-0.16019940376281738
1764634067493127200,13.171127197265625,-0.03222314268350601,0.34315356612205505,-0.20173825323581696
1764634067509866800,13.18786669921875,-0.007635815534740686,0.24159720540046692,-0.18936823308467865
1764634067526602000,13.20460205078125,0.001832595793530345,0.15683965384960175,-0.12370020896196365
1764634067543367700,13.22136767578125,-0.02076941914856434,0.09636399149894714,-0.04260785132646561
1764634067560113200,13.238113037109375,-0.061391957104206085,0.08765916526317596,0.00855211354792118
1764634067576875000,13.254875,-0.08277224004268646,0.07635815441608429,-0.030695978552103043
1764634067593607400,13.271607421875,-0.09300423413515091,0.07910704612731934,-0.1281289905309677
1764634067610354000,13.28835400390625,-0.08048149943351746,-0.003512475173920393,-0.28496864438056946
1764634067627080200,13.305080078125,-0.06200282275676727,-0.11774427443742752,-0.4118759036064148
1764634067643830300,13.321830322265624,-0.05161811411380768,-0.21609358489513397,-0.44516804814338684
1764634067660579300,13.338579345703126,-0.020922135561704636,-0.2817615866661072,-0.4283692538738251
1764634067677326600,13.35532666015625,0.008246680721640587,-0.27458393573760986,-0.43676865100860596
1764634067694072000,13.372072021484374,0.024434609338641167,-0.2603813111782074,-0.4538728892803192
1764634067710820000,13.388820068359376,0.016798794269561768,-0.2736676335334778,-0.46822822093963623
1764634067727565000,13.40556494140625,0.018020525574684143,-0.2733621895313263,-0.48517972230911255
1764634067744311000,13.42231103515625,0.01771509274840355,-0.2632829248905182,-0.5406157374382019
1764634067761034800,13.43903466796875,0.0074830991216003895,-0.33918291330337524,-0.6534730792045593
1764634067777821400,13.455821533203125,-0.02367102913558483,-0.479834645986557,-0.7677049040794373
1764634067794563800,13.472563720703125,-0.04046982154250145,-0.6017022728919983,-0.8521569967269897
1764634067811311600,13.4893115234375,-0.043218716979026794,-0.6508769392967224,-0.8778133392333984
1764634067828031000,13.506031005859375,-0.028557950630784035,-0.6623306274414062,-0.8859072923660278
1764634067844795400,13.52279541015625,-0.013286318629980087,-0.7011205554008484,-0.9634872078895569
1764634067861537000,13.539537109375,-0.007788531947880983,-0.8098546266555786,-1.1485793590545654
1764634067878284500,13.556284423828124,-0.016951510682702065,-0.9752463698387146,-1.407128095626831
1764634067895029800,13.57302978515625,-0.050854530185461044,-1.0746647119522095,-1.6357444524765015
1764634067911767000,13.58976708984375,-0.07269296050071716,-1.0044151544570923,-1.7298176288604736
1764634067928526000,13.606526123046875,-0.05314527451992035,-0.8399397134780884,-1.653001308441162
1764634067945283300,13.623283447265624,-0.023976460099220276,-0.7536550164222717,-1.5595389604568481
1764634067962028000,13.640028076171875,0.02580905705690384,-0.7761042714118958,-1.5566374063491821
1764634067978757600,13.656757568359374,0.10323622822761536,-0.859029233455658,-1.6752979755401611
1764634067995522000,13.67352197265625,0.4254676401615143,-0.7278459668159485,-1.8373299837112427
1764634068012269000,13.69026904296875,0.5684100985527039,-0.3982841372489929,-1.8822284936904907
1764634068029011500,13.707011474609375,0.2721404731273651,-0.042760565876960754,-1.9277379512786865
1764634068045725200,13.72372509765625,0.05803219974040985,-0.0757472887635231,-1.8697057962417603
1764634068062498800,13.740498779296875,0.016798794269561768,-0.251218318939209,-1.9353737831115723
1764634068079242500,13.757242431640625,0.08292495459318161,-0.5186246037483215,-2.2823452949523926
1764634068095987700,13.77398779296875,0.20097467303276062,-0.8080220222473145,-2.7597365379333496
1764634068112728000,13.79072802734375,0.24602597951889038,-0.9385944604873657,-3.168405294418335
1764634068129480700,13.807480712890625,0.18081611394882202,-0.8691084980964661,-3.374725103378296
1764634068146228500,13.824228515625,0.096211276948452,-0.8187121152877808,-3.2795827388763428
1764634068162974000,13.840973876953125,0.1638645976781845,-0.902247965335846,-3.045315980911255
1764634068179721200,13.85772119140625,0.2528982162475586,-0.8950703144073486,-2.950937271118164
1764634068196461600,13.874461669921875,0.266642689704895,-0.8620835542678833,-2.9374983310699463
1764634068213214200,13.891214111328125,0.1719585657119751,-0.9757044911384583,-2.8481593132019043
1764634068229944600,13.907944580078125,0.12599095702171326,-1.1589640378952026,-2.679560422897339
1764634068246707200,13.924707275390626,0.14065171778202057,-1.2793045043945312,-2.5718953609466553
1764634068263437000,13.94143701171875,0.12522737681865692,-1.3622294664382935,-2.4889705181121826
1764634068280216600,13.958216552734376,0.12308934330940247,-1.3851369619369507,-2.3968825340270996
1764634068296958500,13.97495849609375,0.09544769674539566,-1.3422236442565918,-2.1847596168518066
1764634068313706000,13.9917060546875,0.12278391420841217,-1.4607315063476562,-1.795332908630371
1764634068330448100,14.0084482421875,0.16554448008537292,-1.5627460479736328,-1.6134477853775024
1764634068347203300,14.025203369140625,0.1635591685771942,-1.449125051498413,-1.6801848411560059
1764634068363944400,14.0419443359375,0.1394299864768982,-1.2012665271759033,-1.7336355447769165
1764634068380692000,14.05869189453125,0.12003502249717712,-1.087492823600769,-1.642616629600525
1764634068397433000,14.07543310546875,0.07590000331401825,-1.0276280641555786,-1.446223497390747
1764634068414189600,14.092189453125,0.055741455405950546,-0.998153805732727,-1.1632401943206787
1764634068430931000,14.108930908203124,0.06383541971445084,-1.0088438987731934,-0.9669997096061707
1764634068447697700,14.12569775390625,0.08720101416110992,-0.9527970552444458,-0.970054030418396
1764634068464423400,14.14242333984375,0.1241583600640297,-0.764955997467041,-1.0024298429489136
1764634068481170700,14.159170654296876,0.1592831164598465,-0.6238461136817932,-0.9789115786552429
1764634068497886500,14.175886474609374,0.18585574626922607,-0.5700899958610535,-0.944855809211731
1764634068514668800,14.192668701171876,0.1823432743549347,-0.5726861953735352,-0.8982773423194885
1764634068531410200,14.20941015625,0.1918116807937622,-0.5774203538894653,-0.7954992651939392
1764634068548134100,14.226134033203126,0.26572638750076294,-0.5729916095733643,-0.6117815375328064
1764634068564902400,14.24290234375,0.38576140999794006,-0.616973876953125,-0.4144720733165741
1764634068581654500,14.259654541015625,0.5265658497810364,-0.7556403279304504,-0.2955060601234436
1764634068598374700,14.276374755859376,0.6004805564880371,-0.9943358898162842,-0.34208452701568604
1764634068615131100,14.293131103515625,0.5760459303855896,-1.1172724962234497,-0.4964807331562042
1764634068631875800,14.309875732421874,0.536797821521759,-1.0276280641555786,-0.6192646622657776
1764634068648621300,14.326621337890625,0.5858197808265686,-0.9410378932952881,-0.7043276429176331
1764634068665370400,14.343370361328125,0.7168503403663635,-0.9182831645011902,-0.7096726894378662
1764634068682100500,14.3601005859375,0.8087855577468872,-1.004873275756836,-0.655458390712738
1764634068698857500,14.376857421875,0.8384125232696533,-1.217149019241333,-0.64217209815979
1764634068715609000,14.393609130859375,0.782976508140564,-1.3826935291290283,-0.6328563690185547
1764634068732358400,14.4103583984375,0.6724098920822144,-1.4582880735397339,-0.6441574096679688
1764634068749082600,14.42708251953125,0.5612324476242065,-1.4110987186431885,-0.6629415154457092
1764634068765862700,14.443862548828125,0.5145012736320496,-1.2980886697769165,-0.6203336715698242
1764634068782608100,14.460608154296875,0.5474879741668701,-1.225395679473877,-0.49556443095207214
1764634068799353000,14.47735302734375,0.541532039642334,-1.2272282838821411,-0.28588494658470154
1764634068816088600,14.494088623046874,0.47937649488449097,-1.3533719778060913,-0.07483099400997162
1764634068832846600,14.5108466796875,0.43829581141471863,-1.4836390018463135,0.023365596309304237
1764634068849598500,14.527598388671874,0.4213443100452423,-1.4303410053253174,0.024587325751781464
1764634068866343700,14.54434375,0.40194934606552124,-1.1971431970596313,-0.02687807008624077
1764634068883068400,14.561068359375,0.3712533414363861,-0.8674286603927612,-0.08735372871160507
1764634068899832000,14.57783203125,0.29825496673583984,-0.5487096905708313,-0.13500121235847473
1764634068916579000,14.5945791015625,0.19807305932044983,-0.3223841190338135,-0.19333885610103607
1764634068933326000,14.611326171875,0.13668109476566315,-0.2096794992685318,-0.24617868661880493
1764634068950054100,14.62805419921875,0.13988813757896423,-0.2148718535900116,-0.22968533635139465
1764634068966818000,14.644818115234376,0.14874568581581116,-0.28496864438056946,-0.16111570596694946
1764634068983564300,14.661564208984375,0.15286903083324432,-0.39095374941825867,-0.11682797968387604
1764634069000313000,14.67831298828125,0.17592918872833252,-0.4456261992454529,-0.13011430203914642
1764634069017035000,14.695034912109374,0.20341812074184418,-0.4508185386657715,-0.16111570596694946
1764634069033809700,14.7118095703125,0.19624045491218567,-0.46792277693748474,-0.19837848842144012
1764634069050547500,14.72854736328125,0.21044307947158813,-0.44165557622909546,-0.22113321721553802
1764634069067283700,14.74528369140625,0.2509129047393799,-0.37827831506729126,-0.18860463798046112
1764634069084018400,14.762018310546875,0.24953845143318176,-0.3591887652873993,-0.10247264802455902
1764634069100777000,14.77877685546875,0.19944749772548676,-0.3956879675388336,0.0010690141934901476
1764634069117528300,14.7955283203125,0.14385876059532166,-0.4331034719944,0.09498954564332962
1764634069134274600,14.812274658203124,0.09804387390613556,-0.42378777265548706,0.15882496535778046
1764634069150994400,14.828994384765625,0.06811147183179855,-0.3735440969467163,0.1469130963087082
1764634069167759400,14.84575927734375,0.03894266113638878,-0.2811507284641266,0.0555887371301651
1764634069184513800,14.862513671875,0.02519819140434265,-0.12324206531047821,-0.06398813426494598
1764634069201257200,14.87925732421875,0.01038470957428217,0.04046982154250145,-0.15057829022407532
1764634069217992400,14.895992431640625,-0.02474004216492176,0.10018189996480942,-0.18188512325286865
1764634069234749400,14.91274951171875,-0.04612032696604729,0.04306599870324135,-0.1745547503232956
1764634069251497000,14.9294970703125,-0.031154127791523933,-0.10094548016786575,-0.14676037430763245
1764634069268255200,14.946255126953124,0.005650503560900688,-0.23380866646766663,-0.08155050873756409
1764634069284990000,14.962989990234375,0.038637228310108185,-0.3006984293460846,-0.010690141469240189
1764634069301735400,14.9797353515625,0.07254024595022202,-0.31551191210746765,0.008246680721640587
1764634069318483000,14.99648291015625,0.11071932315826416,-0.2993239760398865,-0.024892758578062057
1764634069335228400,15.013228515625,0.15225815773010254,-0.2710714638233185,-0.041691552847623825
1764634069351975000,15.029974853515625,0.21334469318389893,-0.26893341541290283,-0.0027488935738801956
1764634069368725500,15.0467255859375,0.23518311977386475,-0.3507893681526184,0.0019853119738399982
1764634069385482200,15.063482177734375,0.28008171916007996,-0.4213443100452423,-0.07559457421302795
1764634069402222300,15.080222412109375,0.3139847218990326,-0.2684752643108368,-0.22892175614833832
1764634069418979300,15.096979248046875,0.2632829248905182,0.13500121235847473,-0.3859141170978546
1764634069435720700,15.113720703125,0.14294247329235077,0.4170682430267334,-0.40882155299186707
1764634069452467500,15.130467529296874,-0.04199698567390442,0.25931230187416077,-0.3208569586277008
1764634069469210000,15.147210205078125,-0.18631389737129211,-0.06612616032361984,-0.16462817788124084
1764634069485944000,15.163944091796875,-0.304210901260376,-0.3240640163421631,0.0913243517279625
1764634069502697000,15.180697021484375,-0.3878994286060333,-0.5274821519851685,0.4645630121231079
1764634069519435300,15.197435302734375,-0.535881519317627,-0.3095559775829315,0.7544185519218445
1764634069536192000,15.21419189453125,-0.7093672752380371,0.3156646192073822,0.7910705208778381
1764634069552934000,15.230933837890625,-0.8930850028991699,0.9689850211143494,0.611934244632721
1764634069569677800,15.247677734375,-1.0708467960357666,1.4054481983184814,0.48655417561531067
1764634069586428200,15.26442822265625,-1.2512047290802002,1.53525710105896,0.5546656250953674
1764634069603172000,15.281172119140624,-1.315040111541748,1.4761558771133423,0.7713701128959656
1764634069619919000,15.297919189453125,-1.3258830308914185,1.3935363292694092,1.0314459800720215
1764634069636665600,15.31466552734375,-1.3161091804504395,1.3654365539550781,1.2470813989639282
1764634069653413400,15.331413330078124,-1.2655600309371948,1.3706289529800415,1.392925500869751
1764634069670154500,15.348154541015624,-1.193172574043274,1.3519974946975708,1.5421292781829834
1764634069686909700,15.36490966796875,-1.1771373748779297,1.3235923051834106,1.7259997129440308
1764634069703649300,15.381649169921875,-1.1290316581726074,1.2626584768295288,1.8613064289093018
1764634069720397000,15.39839697265625,-1.0464121103286743,1.1742357015609741,1.9634735584259033
1764634069737148000,15.41514794921875,-0.9867000579833984,1.091310739517212,2.1513147354125977
1764634069753892900,15.431892822265626,-0.974177360534668,1.0419833660125732,2.3513729572296143
1764634069770650000,15.448650146484376,-0.9923505783081055,1.050840973854065,2.4072673320770264
1764634069787393300,15.465393310546874,-1.030071496963501,1.112385630607605,2.337170362472534
1764634069804148000,15.48214794921875,-1.0699304342269897,1.2015719413757324,2.236530303955078
1764634069820891000,15.498890869140626,-1.1158981323242188,1.2273809909820557,2.250427484512329
1764634069837619700,15.51561962890625,-1.1702650785446167,1.1840095520019531,2.3516783714294434
1764634069854357200,15.532357177734376,-1.1943942308425903,1.2093604803085327,2.4013113975524902
1764634069871119400,15.549119384765625,-1.1872166395187378,1.2388347387313843,2.428800106048584
1764634069887863600,15.565863525390625,-1.1760683059692383,1.1832460165023804,2.498133420944214
1764634069904603000,15.582602783203125,-1.1644618511199951,1.1830933094024658,2.6114490032196045
1764634069921356500,15.5993564453125,-1.1942415237426758,1.1980594396591187,2.7227790355682373
1764634069938111200,15.616111328125,-1.205847978591919,1.1954632997512817,2.791348695755005
1764634069954858500,15.6328583984375,-1.1797335147857666,1.1410962343215942,2.830291509628296
1764634069971608300,15.6496083984375,-1.1640037298202515,1.092837929725647,2.886491060256958
1764634069988355300,15.666355224609376,-1.1536190509796143,1.1270463466644287,2.850908041000366
1764634070005100500,15.6831005859375,-1.1438452005386353,1.1971431970596313,2.7656924724578857
1764634070021848800,15.699848876953125,-1.1523972749710083,1.3096951246261597,2.6923885345458984
1764634070038594000,15.716593994140625,-1.169501543045044,1.3946053981781006,2.646268129348755
1764634070055320800,15.73332080078125,-1.1372783184051514,1.3359622955322266,2.624277114868164
1764634070072068600,15.750068603515626,-1.10139000415802,1.1809552907943726,2.618015766143799
1764634070088825300,15.766825439453125,-1.0795515775680542,1.1275044679641724,2.6166412830352783
1764634070105563000,15.78356298828125,-1.0403034687042236,1.132238745689392,2.6027441024780273
1764634070122318300,15.800318359375,-0.9576839804649353,1.1290316581726074,2.5503623485565186
1764634070139059000,15.817058837890626,-0.8428413271903992,1.048397421836853,2.4752259254455566
1764634070155808300,15.833808349609376,-0.7718282341957092,1.0181596279144287,2.4578163623809814
1764634070172553000,15.850552978515625,-0.7212791442871094,1.0545061826705933,2.4578163623809814
1764634070189300700,15.86730078125,-0.6392704844474792,1.098793864250183,2.3625214099884033
1764634070206045700,15.884045654296875,-0.5424483418464661,1.1181888580322266,2.135279417037964
1764634070222793500,15.90079345703125,-0.4729624092578888,1.1192578077316284,1.867262363433838
1764634070239539000,15.9175390625,-0.4144720733165741,0.9952521920204163,1.6551393270492554
1764634070256302300,15.93430224609375,-0.35445454716682434,0.8736900091171265,1.46424400806427
1764634070273044700,15.951044677734375,-0.3039054572582245,0.7554876208305359,1.3093897104263306
1764634070289770800,15.967770751953125,-0.27488934993743896,0.6336199641227722,1.222494125366211
1764634070306524700,15.984524658203124,-0.2246456891298294,0.4534147381782532,1.0951286554336548
1764634070323272200,16.001272216796874,-0.17272214591503143,0.2616030275821686,0.9158397316932678
1764634070340018200,16.01801806640625,-0.13530665636062622,0.10247264802455902,0.7782423496246338
1764634070356765000,16.034764892578124,-0.11041389405727386,-0.006872233934700489,0.6803511381149292
1764634070373511000,16.051510986328125,-0.09407325088977814,-0.0377209298312664,0.6487388610839844
1764634070390261500,16.068261474609375,-0.08384125679731369,-0.026419922709465027,0.6003278493881226
1764634070407016400,16.085016357421875,-0.07238753139972687,-0.07040221989154816,0.532369077205658
1764634070423764000,16.101763916015624,-0.0429132841527462,-0.17318029701709747,0.4660901725292206
1764634070440510000,16.118510009765625,-0.00931569468230009,-0.20005837082862854,0.3695734739303589
1764634070457256700,16.135256591796875,0.02687807008624077,-0.1609629988670349,0.230448916554451
1764634070474002400,16.15200244140625,0.036193765699863434,-0.047800205647945404,0.08460483700037003
1764634070490762500,16.168762451171876,0.014202617108821869,0.05543602257966995,-0.01863138936460018
1764634070507495200,16.1854951171875,0.00427605677396059,0.06688974797725677,-0.07681630551815033
1764634070524243200,16.2022431640625,0.006261368747800589,0.005345070734620094,-0.09605856239795685
1764634070540953600,16.21895361328125,0.032528575509786606,-0.08078692853450775,-0.11102475970983505
1764634070557712000,16.2357119140625,0.058184914290905,-0.14004085958003998,-0.15042556822299957
1764634070574468600,16.252468505859376,0.06811147183179855,-0.14523321390151978,-0.2217440903186798
1764634070591216000,16.269216064453126,0.053297992795705795,-0.1059851199388504,-0.3251330256462097
1764634070607961300,16.28596142578125,0.06230825558304787,-0.07162395119667053,-0.44257187843322754
1764634070624709000,16.302709228515624,0.07330382615327835,-0.08659014850854874,-0.5236642360687256
1764634070641454600,16.31945458984375,0.08292495459318161,-0.11316278576850891,-0.5146539807319641
1764634070658201900,16.336201904296875,0.09178250283002853,-0.08155050873756409,-0.485027015209198
1764634070674947600,16.352947509765624,0.08857546001672745,0.01038470957428217,-0.49006664752960205
1764634070691695000,16.369695068359373,0.0861319974064827,0.08460483700037003,-0.5725334286689758
1764634070708440300,16.3864404296875,0.11056660860776901,-0.0025961773935705423,-0.7359399199485779
1764634070725188000,16.40318798828125,0.15729780495166779,-0.22052235901355743,-0.8918632864952087
1764634070741949400,16.419949462890624,0.19028452038764954,-0.4395175576210022,-0.9404270648956299
1764634070758677800,16.436677734375,0.20525072515010834,-0.52702397108078,-0.8775079250335693
1764634070775426300,16.45342626953125,0.2200642079114914,-0.3998112976551056,-0.8286387324333191
1764634070792174000,16.470174072265625,0.21441370248794556,-0.06902777403593063,-0.8822421431541443
1764634070808919300,16.486919189453126,0.16600263118743896,0.3150537610054016,-1.0629055500030518
1764634070825663000,16.5036630859375,0.11010845750570297,0.5731443166732788,-1.3706289529800415
1764634070842416000,16.520416015625,0.09285151958465576,0.5522221922874451,-1.7599027156829834
1764634070859159800,16.537159912109374,0.08170322328805923,0.2730567753314972,-2.068847894668579
1764634070875905500,16.553905517578126,0.08292495459318161,-0.06688974797725677,-2.1791090965270996
1764634070892653000,16.570653076171876,0.11698069423437119,-0.34055736660957336,-2.107179641723633
1764634070909401600,16.587401611328126,0.17501288652420044,-0.5470298528671265,-1.9591975212097168
1764634070926158800,16.604158935546874,0.20799961686134338,-0.6360634565353394,-1.9352210760116577
1764634070942904000,16.620904052734375,0.21502456068992615,-0.6032294034957886,-2.0752620697021484
1764634070959651800,16.63765185546875,0.22907446324825287,-0.5508477091789246,-2.2259929180145264
1764634070976397300,16.654397216796873,0.20784689486026764,-0.5905539989471436,-2.291661024093628
1764634070993145300,16.671145263671875,0.20631973445415497,-0.6337726712226868,-2.3406829833984375
1764634071009863000,16.68786279296875,0.22250767052173615,-0.45891252160072327,-2.3910791873931885
1764634071026624800,16.704624755859374,0.21105393767356873,-0.44425174593925476,-2.3021984100341797
1764634071043370200,16.721370361328123,0.32681289315223694,-0.7040221691131592,-2.1401662826538086
1764634071060117800,16.73811767578125,0.5012149214744568,-0.8772025108337402,-2.129781723022461
1764634071076857600,16.754857666015624,0.5988006591796875,-0.8901833891868591,-2.271960496902466
1764634071093611300,16.771611328125,0.5838344693183899,-0.7672467231750488,-2.406961679458618
1764634071110356500,16.7883564453125,0.4812090992927551,-0.8006916046142578,-2.400394916534424
1764634071127104000,16.80510400390625,0.3543018400669098,-0.7231117486953735,-2.322051525115967
1764634071143849000,16.821848876953126,0.21807889640331268,-0.44287729263305664,-2.498286247253418
1764634071160596700,16.8385966796875,0.20952677726745605,-0.3692680299282074,-2.668870210647583
1764634071177342200,16.85534228515625,0.22937989234924316,-0.5186246037483215,-2.7140743732452393
1764634071194090000,16.872090087890626,0.2532036304473877,-0.9611964821815491,-2.442391872406006
1764634071210835700,16.888835693359376,0.260992169380188,-1.3727669715881348,-2.1711678504943848
1764634071227582700,16.905582763671877,0.35246923565864563,-1.4025466442108154,-2.1670444011688232
1764634071244328200,16.922328125,0.4288274049758911,-1.0897835493087769,-2.250427484512329
1764634071261075700,16.93907568359375,0.4970915913581848,-0.9842566251754761,-2.1482603549957275
1764634071277833200,16.955833251953123,0.5224425196647644,-1.1924089193344116,-1.9274325370788574
1764634071294585600,16.972585693359374,0.5354233980178833,-1.5189164876937866,-1.7235562801361084
1764634071311327500,16.989327392578126,0.622624397277832,-1.6728544235229492,-1.7831156253814697
1764634071328073500,17.006073486328123,0.6940956115722656,-1.4885258674621582,-1.9798142910003662
1764634071344821000,17.022821044921876,0.6968445181846619,-1.4129313230514526,-1.9454530477523804
1764634071361567500,17.0395673828125,0.6852380633354187,-1.524261474609375,-1.673770785331726
1764634071378296800,17.056296875,0.7328855991363525,-1.8072447776794434,-1.4482088088989258
1764634071395047700,17.073047607421874,0.816421389579773,-1.8452712297439575,-1.5732834339141846
1764634071411793400,17.08979345703125,0.8048149347305298,-1.6578882932662964,-1.853670597076416
1764634071428540700,17.106540771484376,0.6769914031028748,-1.39323091506958,-1.9536998271942139
1764634071445286400,17.123286376953125,0.5429064631462097,-1.1942415237426758,-1.7652478218078613
1764634071462033700,17.14003369140625,0.4715879559516907,-1.0713049173355103,-1.4077389240264893
1764634071478776800,17.15677685546875,0.5025894045829773,-1.0780243873596191,-1.1429288387298584
1764634071495539700,17.173539794921876,0.5766568183898926,-1.1102476119995117,-1.0219775438308716
1764634071512297700,17.190297607421876,0.6821837425231934,-1.1336132287979126,-0.9442449808120728
1764634071529016000,17.20701611328125,0.769690215587616,-1.13758385181427,-0.9781479835510254
1764634071545748500,17.22374853515625,0.8370380997657776,-1.06657075881958,-1.2747230529785156
1764634071562516700,17.240516845703127,0.755793035030365,-0.7502952218055725,-1.505935549736023
1764634071579257900,17.2572578125,0.6102544069290161,-0.4876231849193573,-1.404226541519165
1764634071596006100,17.274006103515624,0.6183483600616455,-0.42348232865333557,-1.0942124128341675
1764634071612751000,17.290751220703125,0.7104362845420837,-0.55069500207901,-0.7904596328735352
1764634071629498600,17.30749853515625,0.764955997467041,-0.7988590002059937,-0.6210972666740417
1764634071646244400,17.324244384765624,0.8042041063308716,-1.0183123350143433,-0.6685920357704163
1764634071662987800,17.34098779296875,0.7709119319915771,-1.0543533563613892,-0.7429648637771606
1764634071679741000,17.357740966796875,0.7038694620132446,-0.9784533977508545,-0.5818491578102112
1764634071696474600,17.374474609375,0.6748533844947815,-0.8199338912963867,-0.2874121069908142
1764634071713226500,17.3912265625,0.6218608021736145,-0.6849326491355896,-0.08491026610136032
1764634071729979000,17.407978759765626,0.5510004758834839,-0.6236934065818787,-0.031001411378383636
1764634071746735900,17.42473583984375,0.5152648091316223,-0.7064656615257263,-0.03039054572582245
1764634071763451100,17.441451171875,0.5140430927276611,-0.9488264322280884,0.003359758760780096
1764634071780228600,17.458228515625,0.49266281723976135,-1.1864529848098755,0.10186178237199783
1764634071796976400,17.474976318359374,0.41431936621665955,-1.2460123300552368,0.22082778811454773
1764634071813721900,17.491721923828123,0.3179553747177124,-1.1241447925567627,0.2477058619260788
1764634071830467000,17.508467041015624,0.26374107599258423,-1.0059423446655273,0.16523905098438263
1764634071847217200,17.525217041015626,0.26603180170059204,-0.9529497623443604,0.06872233748435974
1764634071863962400,17.54196240234375,0.24862214922904968,-0.8868235945701599,0.013133603148162365
1764634071880707600,17.55870751953125,0.21181751787662506,-0.7906123399734497,-0.043676864355802536
1764634071897437200,17.575437255859374,0.17608191072940826,-0.7012733221054077,-0.0884227454662323
1764634071914203600,17.59220361328125,0.15577064454555511,-0.6279694437980652,-0.13118331134319305
1764634071930951000,17.608950927734377,0.12110403180122375,-0.2255619913339615,-0.31291571259498596
1764634071947661300,17.625661376953126,0.013897184282541275,0.4352414906024933,-0.5902485251426697
1764634071964448800,17.64244873046875,-0.1010981947183609,0.6574437022209167,-0.6003278493881226
1764634071981181400,17.659181396484374,-0.17592918872833252,0.33307427167892456,-0.2984076738357544
1764634071997938200,17.675938232421874,-0.19944749772548676,-0.15134187042713165,0.0806342139840126
1764634072014655700,17.69265576171875,-0.14996741712093353,-0.3842342495918274,0.32528573274612427
1764634072031415600,17.70941552734375,-0.08674286305904388,-0.33169981837272644,0.3908010423183441
1764634072048163800,17.726163818359375,-0.041233405470848083,-0.12919799983501434,0.28099802136421204
1764634072064907300,17.7429072265625,-0.03420845419168472,0.18249599635601044,0.07009678333997726
1764634072081653000,17.759653076171876,-0.13744467496871948,0.47418415546417236,-0.04199698567390442
1764634072098400800,17.77640087890625,-0.3439171314239502,0.6258314251899719,0.043218716979026794
1764634072115162600,17.79316259765625,-0.527634859085083,0.6829473376274109,0.21960605680942535
1764634072131890200,17.80989013671875,-0.6496551632881165,0.7622070908546448,0.34804046154022217
1764634072148638200,17.82663818359375,-0.7400632500648499,0.9010262489318848,0.3776674270629883
1764634072165387000,17.843386962890627,-0.826500654220581,1.0684033632278442,0.3527746796607971
1764634072182125800,17.860125732421874,-0.9074403047561646,1.200502872467041,0.34926220774650574
1764634072198885400,17.876885498046875,-0.9740246534347534,1.2615894079208374,0.41004329919815063
1764634072215624700,17.893624755859374,-1.0661125183105469,1.2916746139526367,0.5729916095733643
1764634072232388900,17.910388916015624,-1.1520918607711792,1.3112221956253052,0.7487680912017822
1764634072249128200,17.927128173828127,-1.2095131874084473,1.337031364440918,0.9292787313461304
1764634072265865700,17.94386572265625,-1.2415835857391357,1.3344351053237915,1.1169670820236206
1764634072282610700,17.960610595703123,-1.2273809909820557,1.2800681591033936,1.2626584768295288
1764634072299359700,17.97735986328125,-1.1804970502853394,1.2483031749725342,1.3391693830490112
1764634072316102700,17.9941025390625,-1.1296426057815552,1.2985467910766602,1.410029649734497
1764634072332847900,18.010847900390626,-1.117730736732483,1.3231340646743774,1.540907621383667
1764634072349594000,18.027593994140624,-1.134834885597229,1.3439035415649414,1.6745343208312988
1764634072366350300,18.044350341796875,-1.1218540668487549,1.3515393733978271,1.8205311298370361
1764634072383089200,18.061089111328126,-1.1154398918151855,1.2959506511688232,1.9869918823242188
1764634072399835600,18.077835693359376,-1.154077172279358,1.1873693466186523,2.1207714080810547
1764634072416570400,18.0945703125,-1.203251838684082,1.1217013597488403,2.1872029304504395
1764634072434960100,18.112960205078124,-1.2455542087554932,1.1264355182647705,2.196671485900879
1764634072450075600,18.12807568359375,-1.2892310619354248,1.129184365272522,2.225382089614868
1764634072466823400,18.144823486328125,-1.3205379247665405,1.1624765396118164,2.3041837215423584
1764634072483568600,18.161568603515626,-1.3193162679672241,1.1982121467590332,2.380847215652466
1764634072500307700,18.1783076171875,-1.303891897201538,1.207069754600525,2.4352142810821533
1764634072517062000,18.195061767578125,-1.296408772468567,1.2443325519561768,2.4579689502716064
1764634072533804300,18.21180419921875,-1.2930489778518677,1.268919825553894,2.5077545642852783
1764634072550559700,18.228559814453124,-1.3196216821670532,1.2592986822128296,2.607783794403076
1764634072567297800,18.2452978515625,-1.337336778640747,1.2785409688949585,2.67452073097229
1764634072584044300,18.262044189453125,-1.3240504264831543,1.3180944919586182,2.7099509239196777
1764634072600807200,18.27880712890625,-1.2930489778518677,1.3764320611953735,2.6974282264709473
1764634072617542100,18.295542236328124,-1.2709051370620728,1.4799737930297852,2.5757133960723877
1764634072634281700,18.31228173828125,-1.2457069158554077,1.649794340133667,2.4138340950012207
1764634072651033900,18.329033935546875,-1.2548699378967285,1.8052594661712646,2.327854633331299
1764634072667777800,18.34577783203125,-1.2345587015151978,1.819920301437378,2.3076961040496826
1764634072684530400,18.362530517578126,-1.1407908201217651,1.7073683738708496,2.283719778060913
1764634072701259500,18.379259521484375,-1.0216721296310425,1.643227458000183,2.300060272216797
1764634072718019800,18.396019775390624,-0.884227454662323,1.6097826957702637,2.3344216346740723
1764634072734763300,18.41276318359375,-0.7779368758201599,1.523956060409546,2.3402247428894043
1764634072751519700,18.429519775390624,-0.7302893996238708,1.389107584953308,2.327702045440674
1764634072768244200,18.446244140625,-0.6782131195068359,1.213025689125061,2.2408063411712646
1764634072785005600,18.463005615234376,-0.6356052756309509,1.0824532508850098,2.1117610931396484
1764634072801749800,18.479749755859373,-0.6238461136817932,1.0760390758514404,1.9853121042251587
1764634072818502100,18.496502197265624,-0.6201809644699097,1.1468994617462158,1.8501580953598022
1764634072835245800,18.513245849609376,-0.5998696684837341,1.226922869682312,1.7055357694625854
1764634072851991800,18.52999169921875,-0.5665774941444397,1.2712105512619019,1.5358679294586182
1764634072868735500,18.546735595703126,-0.5621487498283386,1.2980886697769165,1.3823879957199097
1764634072885488400,18.56348828125,-0.5711590051651001,1.401172161102295,1.2545645236968994
1764634072902230500,18.58023046875,-0.5584835410118103,1.4355332851409912,1.2011138200759888
1764634072918976300,18.596976318359374,-0.5265658497810364,1.3326025009155273,1.249066710472107
1764634072935728000,18.61372802734375,-0.48517972230911255,1.1945469379425049,1.3454307317733765
1764634072952455000,18.630454833984373,-0.44715335965156555,1.0714576244354248,1.3674218654632568
1764634072969218000,18.647218017578126,-0.41431936621665955,0.9660834074020386,1.3135130405426025
1764634072985959700,18.663959716796874,-0.38347065448760986,0.9068294763565063,1.2296717166900635
1764634073002715100,18.680715087890626,-0.33826664090156555,0.8907942175865173,1.1114692687988281
1764634073019464400,18.69746435546875,-0.31749722361564636,0.8674286603927612,0.998153805732727
1764634073036191700,18.714191650390624,-0.2929098904132843,0.8200865983963013,0.8715519905090332
1764634073052949800,18.73094970703125,-0.2431243658065796,0.750142514705658,0.7509061098098755
1764634073069688300,18.747688232421876,-0.18051068484783173,0.6272059082984924,0.6441574096679688
1764634073086442500,18.7644423828125,-0.11636982858181,0.4453207552433014,0.5517640113830566
1764634073103190300,18.781190185546876,-0.04352414980530739,0.2730567753314972,0.48976120352745056
1764634073119935500,18.797935546875,0.01924225501716137,0.1085812970995903,0.46303585171699524
1764634073136683000,18.81468310546875,0.04245513305068016,0.029932396486401558,0.46334129571914673
1764634073153428700,18.8314287109375,0.05849034711718559,0.052381694316864014,0.4360050559043884
1764634073170176300,18.84817626953125,0.1108720451593399,0.03787364438176155,0.27611109614372253
1764634073186921500,18.86492138671875,0.08200865983963013,-0.0003054326225537807,0.08429940044879913
1764634073203669200,18.881669189453124,0.04688390716910362,-0.02733621932566166,-0.06658431142568588
1764634073220427000,18.898427001953124,0.08307767659425735,-0.08704829961061478,-0.22021691501140594
1764634073237178000,18.91517822265625,0.0913243517279625,-0.12278391420841217,-0.29275718331336975
1764634073253918200,18.931918212890626,0.0679587572813034,-0.11407908797264099,-0.31902438402175903
1764634073270655000,18.948655029296877,0.07177666574716568,-0.12950342893600464,-0.35246923565864563
1764634073287400400,18.965400390625,0.09147707372903824,-0.2093740701675415,-0.4069889783859253
1764634073304157200,18.9821572265625,0.10506882518529892,-0.29046642780303955,-0.49357911944389343
1764634073320893400,18.9988935546875,0.10705413669347763,-0.32131510972976685,-0.5636758804321289
1764634073337641000,19.015640869140626,0.10201449692249298,-0.3568980097770691,-0.6194173693656921
1764634073354389500,19.032389404296875,0.10995574295520782,-0.40362921357154846,-0.6856962442398071
1764634073371146800,19.049146728515623,0.12217304855585098,-0.484416127204895,-0.7759515643119812
1764634073387889200,19.06588916015625,0.1365283876657486,-0.5656611919403076,-0.8831584453582764
1764634073404643000,19.08264306640625,0.15821409225463867,-0.6633996367454529,-0.9642508029937744
1764634073421380900,19.099380859375,0.1898263692855835,-0.722348153591156,-1.0311405658721924
1764634073438132500,19.116132568359376,0.23335053026676178,-0.7003570199012756,-1.0764973163604736
1764634073454871800,19.132871826171876,0.2837468981742859,-0.6178901791572571,-1.1368201971054077
1764634073471616800,19.14961669921875,0.3039054572582245,-0.5589417219161987,-1.203251838684082
1764634073488358400,19.1663583984375,0.29886582493782043,-0.5597052574157715,-1.2179125547409058
1764634073505105700,19.183105712890626,0.32268956303596497,-0.5885686874389648,-1.2075278759002686
1764634073521851400,19.199851318359375,0.36880987882614136,-0.608727216720581,-1.2469286918640137
1764634073538595000,19.216594970703124,0.3878994286060333,-0.5862779021263123,-1.3368785381317139
1764634073555348000,19.233347900390626,0.36102136969566345,-0.6258314251899719,-1.4547755718231201
1764634073572108000,19.25010791015625,0.3292563557624817,-0.6754642724990845,-1.5106697082519531
1764634073588833800,19.266833740234375,0.2971859276294708,-0.7189884185791016,-1.5028811693191528
1764634073605581000,19.2835810546875,0.35124751925468445,-0.660803496837616,-1.4504995346069336
1764634073622334200,19.300334228515624,0.34025195240974426,-0.5590944290161133,-1.4440854787826538
1764634073639078000,19.317077880859376,0.34345898032188416,-0.3715587854385376,-1.4688254594802856
1764634073655823400,19.3338232421875,0.34544429183006287,-0.3217732608318329,-1.4946345090866089
1764634073672567000,19.350567138671874,0.33276882767677307,-0.6018549799919128,-1.419498085975647
1764634073689320000,19.36731982421875,0.35934147238731384,-0.7476990818977356,-1.49906325340271
1764634073706058500,19.38405859375,0.37629300355911255,-0.6107125282287598,-1.7634152173995972
1764634073722814500,19.400814453125,0.34544429183006287,-0.4075998365879059,-1.9998201131820679
1764634073739552000,19.417552001953126,0.2932153046131134,-0.39324450492858887,-2.0085248947143555
1764634073756288300,19.434288330078125,0.26969701051712036,-0.6788240075111389,-1.8707748651504517
1764634073773053700,19.4510537109375,0.29794952273368835,-1.0106765031814575,-1.8463401794433594
1764634073789782500,19.467782470703124,0.3448334336280823,-1.0674870014190674,-2.085341215133667
1764634073806545200,19.484545166015625,0.35613444447517395,-0.9049968719482422,-2.378709316253662
1764634073823292200,19.501292236328126,0.38117989897727966,-0.709061861038208,-2.484389066696167
1764634073840035800,19.518035888671875,0.4164573848247528,-0.6635523438453674,-2.4188735485076904
1764634073856781000,19.534781005859376,0.4017966091632843,-0.7941248416900635,-2.297922372817993
1764634073873532700,19.55153271484375,0.33292156457901,-1.0780243873596191,-2.202169179916382
1764634073890272500,19.5682724609375,0.29917123913764954,-1.2060006856918335,-2.272571325302124
1764634073907020800,19.585020751953124,0.2961169183254242,-1.1630873680114746,-2.450791358947754
1764634073923770000,19.60177001953125,0.30146199464797974,-1.0227410793304443,-2.621680974960327
1764634073940510500,19.618510498046874,0.34315356612205505,-0.9472993016242981,-2.5835018157958984
1764634073957260800,19.6352607421875,0.37262779474258423,-1.1707231998443604,-2.3044891357421875
1764634073974011600,19.65201171875,0.3666718602180481,-1.5894713401794434,-2.013259172439575
1764634073990753500,19.66875341796875,0.40026944875717163,-1.8406896591186523,-1.9434677362442017
1764634074007496700,19.68549658203125,0.44364088773727417,-1.6409367322921753,-2.1507039070129395
1764634074024250400,19.70225048828125,0.483957976102829,-1.3017538785934448,-2.325716733932495
1764634074040993800,19.718993896484374,0.5135849714279175,-1.1804970502853394,-2.2508857250213623
1764634074057751800,19.735751708984374,0.504574716091156,-1.4202617406845093,-1.9367482662200928
1764634074074486800,19.75248681640625,0.4983133375644684,-1.725236177444458,-1.645671010017395
1764634074091232500,19.769232421875,0.5413793325424194,-1.7209601402282715,-1.5833626985549927
1764634074107979500,19.7859794921875,0.6209444999694824,-1.5497651100158691,-1.4763085842132568
1764634074124725500,19.8027255859375,0.7357872128486633,-1.445918083190918,-1.1959214210510254
1764634074141472800,19.81947265625,0.8880453705787659,-1.4211779832839966,-0.944855809211731
1764634074158218000,19.836218017578126,1.0998629331588745,-1.44057297706604,-0.9140071272850037
1764634074174966000,19.852966064453124,1.217149019241333,-1.4162911176681519,-1.0028879642486572
1764634074191711200,19.869711181640625,1.2154691219329834,-1.3581061363220215,-0.978606104850769
1764634074208474400,19.886474365234374,1.2208142280578613,-1.2983940839767456,-0.7944302558898926
1764634074225217500,19.903217529296874,1.3361150026321411,-1.3634512424468994,-0.5740606188774109
1764634074241964800,19.91996484375,1.4575244188308716,-1.5334244966506958,-0.4911356568336487
1764634074258706700,19.936706787109376,1.476919412612915,-1.6326900720596313,-0.6597344875335693
1764634074275445000,19.953445068359375,1.3501648902893066,-1.510364294052124,-0.870330274105072
1764634074292186400,19.970186279296875,1.2173017263412476,-1.282511591911316,-0.8909469842910767
1764634074308941600,19.986941650390627,1.2428053617477417,-1.098793864250183,-0.7049384713172913
1764634074325679600,20.0036796875,1.2832751274108887,-1.059393048286438,-0.4616613984107971
1764634074342434600,20.0204345703125,1.2599095106124878,-1.1455250978469849,-0.3546072840690613
1764634074359176200,20.03717626953125,1.1823296546936035,-1.29381263256073,-0.43539419770240784
1764634074375923700,20.053923828125,1.0016663074493408,-1.3312281370162964,-0.5424483418464661
1764634074392669200,20.070669189453124,0.7626652717590332,-1.2315043210983276,-0.4639521539211273
1764634074409419800,20.087419677734374,0.6429356932640076,-1.0256427526474,-0.2747366428375244
1764634074426175500,20.104175537109374,0.5978843569755554,-0.73685622215271,-0.16737708449363708
1764634074442906400,20.12090625,0.5132794976234436,-0.46929723024368286,-0.2064724564552307
1764634074459655000,20.137655029296877,0.42730024456977844,-0.3433062732219696,-0.2577851414680481
1764634074476402700,20.154402587890626,0.37369680404663086,-0.33047810196876526,-0.19517144560813904
1764634074493148400,20.1711484375,0.3488040566444397,-0.38240164518356323,-0.04749477282166481
1764634074509880600,20.187880615234373,0.3627012372016907,-0.4150829315185547,0.06582073122262955
1764634074526641400,20.204641357421874,0.37048977613449097,-0.3628539443016052,0.0682641938328743
1764634074543388400,20.221388427734375,0.34437528252601624,-0.3017674386501312,-0.001527163083665073
1764634074560122000,20.2381220703125,0.32039880752563477,-0.2828305959701538,-0.08139779418706894
1764634074576878600,20.254878662109373,0.3168863356113434,-0.3295617997646332,-0.13484850525856018
1764634074593627400,20.27162744140625,0.2967278063297272,-0.4366159439086914,-0.1290452778339386
1764634074610374400,20.28837451171875,0.2782491147518158,-0.5404630303382874,-0.098502017557621
1764634074627120000,20.3051201171875,0.2866485118865967,-0.5991060733795166,-0.0806342139840126
1764634074643866400,20.321866455078126,0.3188716471195221,-0.5925393104553223,-0.0630718395113945
1764634074660614100,20.3386142578125,0.32986724376678467,-0.5836817622184753,-0.03298672288656235
1764634074677360600,20.355360595703125,0.3260493278503418,-0.5555819272994995,0.03894266113638878
1764634074694106000,20.372106201171874,0.3196352422237396,-0.4879286289215088,0.11362093687057495
1764634074710853400,20.388853271484376,0.30146199464797974,-0.39675697684288025,0.12553280591964722
1764634074727599000,20.40559912109375,0.2825251817703247,-0.2912299931049347,0.06001751124858856
1764634074744346400,20.422346435546874,0.25854870676994324,-0.2246456891298294,-0.020311269909143448
1764634074761095200,20.43909521484375,0.22586742043495178,-0.18967366218566895,-0.04856378585100174
1764634074777852700,20.455852783203124,0.1820378452539444,0.01114829070866108,-0.14782938361167908
1764634074794598400,20.472598388671877,0.11911872029304504,0.26343563199043274,-0.2838996350765228
1764634074811331600,20.48933154296875,0.03985895588994026,0.29077184200286865,-0.3084869384765625
1764634074828091400,20.50609130859375,-0.021991148591041565,0.13897185027599335,-0.2047925740480423
1764634074844838100,20.522838134765625,-0.06444628536701202,0.010537425056099892,-0.08460483700037003
1764634074861580500,20.53958056640625,-0.09025534242391586,-0.02474004216492176,-0.02886338345706463
1764634074878318300,20.556318359375,-0.0933096632361412,-0.03298672288656235,-0.0013744467869400978
1764634074895064000,20.57306396484375,-0.08689557760953903,-0.09422596544027328,0.031001411378383636
1764634074911811300,20.589811279296875,-0.06887505948543549,-0.08689557760953903,0.0656680166721344
1764634074928556300,20.606556396484375,-0.04657847434282303,-0.08460483700037003,0.11026117950677872
1764634074945305000,20.62330517578125,-0.038026362657547,-0.03573561832308769,0.20525072515010834
1764634074962035000,20.640034912109375,-0.096211276948452,0.1007927656173706,0.2909245789051056
1764634074978797600,20.656797607421876,-0.1693623960018158,0.3139847218990326,0.30711251497268677
1764634074995542800,20.673542724609376,-0.27229318022727966,0.5613851547241211,0.2347249686717987
1764634075012275000,20.69027490234375,-0.44287729263305664,0.7922922372817993,0.1540907621383667
1764634075029052200,20.70705224609375,-0.6357579827308655,0.8985827565193176,0.096211276948452
1764634075045791500,20.72379150390625,-0.7533495426177979,0.8756753206253052,0.11133018881082535
1764634075062543000,20.740543212890625,-0.8316930532455444,0.8512406945228577,0.21105393767356873
1764634075079276300,20.7572763671875,-0.9083566069602966,0.9275988936424255,0.35842517018318176
1764634075096022000,20.77402197265625,-0.9952521920204163,1.122464895248413,0.4535674452781677
1764634075112773600,20.790773681640626,-1.1047497987747192,1.3652838468551636,0.47907108068466187
1764634075129514800,20.8075146484375,-1.19607412815094,1.5697709321975708,0.5265658497810364
1764634075146262300,20.82426220703125,-1.2479976415634155,1.6757560968399048,0.6582072973251343
1764634075162999300,20.840999267578123,-1.251968264579773,1.5752687454223633,0.8996517658233643
1764634075179755500,20.857755615234375,-1.2663236856460571,1.4856243133544922,1.1662944555282593
1764634075196501000,20.8745009765625,-1.2811371088027954,1.4969252347946167,1.3223705291748047
1764634075213233200,20.891233154296874,-1.2484558820724487,1.5485434532165527,1.4010194540023804
1764634075229997000,20.9079970703125,-1.2053898572921753,1.5879441499710083,1.4595097303390503
1764634075246754600,20.924754638671875,-1.1779009103775024,1.6525431871414185,1.5192219018936157
1764634075263478000,20.94147802734375,-1.1284208297729492,1.6520850658416748,1.5995506048202515
1764634075280236300,20.958236328125,-1.0626001358032227,1.589929461479187,1.7380642890930176
