time,seconds_elapsed,z,y,x
1760467546400654600,0.145654541015625,4.3070807456970215,-5.648257732391357,7.493124008178711
1760467546417413400,0.162413330078125,4.024727821350098,-7.083951473236084,7.645666599273682
1760467546434213600,0.179213623046875,3.6502509117126465,-7.610970497131348,6.131608009338379
1760467546450942700,0.195942626953125,2.4023938179016113,-6.186643123626709,5.128417015075684
1760467546467697000,0.21269677734375,1.7838492393493652,-5.881557941436768,4.002593994140625
1760467546484460800,0.229460693359375,2.117648124694824,-6.2500529289245605,4.530211448669434
1760467546501249300,0.246249267578125,1.160519003868103,-7.492526054382324,4.049253940582275
1760467546518005800,0.263005859375,2.1876380443573,-7.720442295074463,5.403591632843018
1760467546534787000,0.279787109375,3.053241729736328,-8.167900085449219,4.810770034790039
1760467546551553800,0.2965537109375,2.6524438858032227,-7.944170951843262,5.523232936859131
1760467546568288800,0.313288818359375,2.7008986473083496,-8.94975471496582,6.185446739196777
1760467546585077800,0.330077880859375,3.04307222366333,-9.915857315063477,3.5748770236968994
1760467546601834000,0.346833984375,-9.780064582824707,-13.34716510772705,2.0297117233276367
1760467546618600200,0.36360009765625,-3.040081262588501,-13.271790504455566,7.46919584274292
1760467546635367200,0.3803671875,7.619345664978027,-9.866804122924805,13.219148635864258
1760467546652130600,0.397130615234375,10.285548210144043,-6.808178424835205,13.018750190734863
1760467546668868000,0.4138681640625,6.832107067108154,-5.945566177368164,11.580663681030273
1760467546685657600,0.43065771484375,0.36251261830329895,-8.922835350036621,9.759127616882324
1760467546702419200,0.447419189453125,-5.80917501449585,-9.990633010864258,7.061817646026611
1760467546719212800,0.464212890625,-8.334200859069824,-9.842277526855469,5.2390851974487305
1760467546735915000,0.4809150390625,-7.747959613800049,-6.959524631500244,7.04925537109375
1760467546752691700,0.497691650390625,-5.155934810638428,-5.170291423797607,9.033503532409668
1760467546769484500,0.514484619140625,-1.5846468210220337,-4.758726119995117,7.139584541320801
1760467546786228200,0.531228271484375,-7.10429048538208,-6.049654006958008,4.732405185699463
1760467546803008300,0.54800830078125,-10.326824188232422,-8.987442016601562,1.7665013074874878
1760467546819715800,0.5647158203125,0.30149564146995544,-8.289336204528809,3.0867412090301514
1760467546836524300,0.581524169921875,4.067798614501953,-7.335795879364014,5.2145586013793945
1760467546853297200,0.598297119140625,1.4141582250595093,-8.407780647277832,3.8111681938171387
1760467546870028000,0.615028076171875,-2.1996021270751953,-9.56889820098877,2.039283037185669
1760467546886810000,0.63181005859375,-0.745364248752594,-10.163514137268066,1.1700903177261353
1760467546903586300,0.64858642578125,3.3828530311584473,-9.527621269226074,1.150349497795105
1760467546920311000,0.66531103515625,1.669592022895813,-9.562915802001953,2.0955145359039307
1760467546937082000,0.68208203125,-0.08733802288770676,-9.652048110961914,2.750549554824829
1760467546953845200,0.69884521484375,0.5784648656845093,-10.38365364074707,3.2548370361328125
1760467546970607000,0.715607177734375,1.7994025945663452,-10.922039031982422,3.55214524269104
1760467546987377700,0.732377685546875,1.9884356260299683,-10.38784122467041,4.422534465789795
1760467547004145700,0.749145751953125,3.009572744369507,-9.517452239990234,4.281956195831299
1760467547020906000,0.765906005859375,2.544766902923584,-9.190832138061523,3.36969256401062
1760467547037682400,0.782682373046875,2.324627161026001,-9.90987491607666,2.7696921825408936
1760467547054453200,0.799453369140625,2.062613010406494,-9.746564865112305,3.397808074951172
1760467547071187200,0.816187255859375,1.5355939865112305,-9.393623352050781,3.913461446762085
1760467547087977200,0.832977294921875,1.2634103298187256,-8.782855987548828,4.038486480712891
1760467547104746000,0.84974609375,2.0452651977539062,-8.154141426086426,3.8057844638824463
1760467547121481200,0.866481201171875,1.913659930229187,-7.662416458129883,3.256033420562744
1760467547138240800,0.88324072265625,1.667797327041626,-7.225726127624512,3.7573297023773193
1760467547155029000,0.900029052734375,1.3549357652664185,-6.56829833984375,4.727619171142578
1760467547171792600,0.916792724609375,1.3908281326293945,-5.909673690795898,4.972883701324463
1760467547188556300,0.933556396484375,-1.1204391717910767,-5.512465000152588,4.454239368438721
1760467547205319000,0.95031884765625,0.12681959569454193,-5.120640277862549,4.241278171539307
1760467547222077000,0.967076904296875,1.5583257675170898,-4.6199421882629395,4.305285930633545
1760467547238851300,0.983851318359375,0.9349954724311829,-4.482355117797852,3.294916868209839
1760467547255603000,1.00060302734375,2.6703901290893555,-4.347160339355469,1.9770697355270386
1760467547272379000,1.01737890625,2.266003131866455,-4.898705959320068,1.6109678745269775
1760467547289104600,1.034104736328125,2.338984251022339,-5.90668249130249,1.934597134590149
1760467547305879000,1.050879150390625,1.2526426315307617,-7.130611419677734,3.379862070083618
1760467547322656300,1.06765625,1.8747764825820923,-8.306085586547852,3.985246181488037
1760467547339431200,1.08443115234375,1.8317056894302368,-8.7445707321167,4.804189682006836
1760467547356168700,1.101168701171875,1.9956140518188477,-8.421539306640625,5.732006549835205
1760467547372951600,1.11795166015625,1.8317056894302368,-7.905886173248291,5.726622581481934
1760467547389670400,1.13467041015625,2.7248268127441406,-7.919046401977539,5.419743061065674
1760467547406472000,1.151471923828125,1.1874382495880127,-8.029714584350586,5.757131099700928
1760467547423241500,1.168241455078125,1.225723385810852,-8.315656661987305,5.98444938659668
1760467547440001500,1.18500146484375,1.2065808773040771,-9.691530227661133,5.044668197631836
1760467547456764400,1.201764404296875,1.5625132322311401,-10.911271095275879,4.865804672241211
1760467547473500000,1.2185,1.5092729330062866,-10.506285667419434,4.681557655334473
1760467547490269700,1.235269775390625,1.2987045049667358,-11.905488967895508,2.104487419128418
1760467547507067400,1.2520673828125,0.137587308883667,-13.555339813232422,0.7890332937240601
1760467547523811600,1.2688115234375,1.755135416984558,-13.35434341430664,1.5272190570831299
1760467547540591600,1.285591552734375,2.45204496383667,-11.130812644958496,3.334996461868286
1760467547557346300,1.30234619140625,0.7698906660079956,-8.380861282348633,2.1481566429138184
1760467547574105900,1.31910595703125,-1.0648061037063599,-7.559525012969971,-1.0947163105010986
1760467547590855700,1.335855712890625,-1.643869161605835,-6.6592254638671875,-1.2418749332427979
1760467547607596000,1.352595947265625,-0.7357929348945618,-6.550950050354004,0.3068794906139374
1760467547624408800,1.369408935546875,0.22133609652519226,-6.997211456298828,1.6516457796096802
1760467547641158100,1.386158203125,1.0719845294952393,-8.020143508911133,3.1627132892608643
1760467547657924000,1.402924072265625,1.3645070791244507,-8.49870777130127,4.2000017166137695
1760467547674677000,1.419677001953125,1.6271194219589233,-8.757132530212402,4.889134883880615
1760467547691424800,1.4364248046875,0.729810893535614,-8.779266357421875,4.331607341766357
1760467547708217000,1.453217041015625,-0.24586252868175507,-9.512666702270508,3.2853455543518066
1760467547724957000,1.46995703125,-1.3513466119766235,-9.8207426071167,3.0167510509490967
1760467547741730300,1.486730224609375,-0.0891326442360878,-8.133204460144043,4.931009292602539
1760467547758457900,1.503457763671875,-0.9367900490760803,-4.911866664886475,5.969494342803955
1760467547775267800,1.520267822265625,-2.1816561222076416,-3.593421459197998,4.513461589813232
1760467547792029400,1.537029541015625,-0.5868397355079651,-4.803591251373291,2.782254457473755
1760467547808802800,1.553802734375,0.3475574851036072,-7.631907939910889,3.1208388805389404
1760467547825551000,1.570551025390625,3.4498519897460938,-10.311869621276855,4.564907550811768
1760467547842300000,1.5872998046875,3.850649833679199,-10.960922241210938,6.832107067108154
1760467547859084500,1.60408447265625,2.4460630416870117,-11.193624496459961,11.059626579284668
1760467547875849000,1.620848876953125,2.6973092555999756,-12.911670684814453,11.052447319030762
1760467547892614100,1.6376142578125,1.3680963516235352,-13.418949127197266,5.117051124572754
1760467547909358300,1.6543583984375,1.2765709161758423,-12.81177043914795,0.43968117237091064
1760467547926141700,1.6711416015625,2.018944025039673,-11.131410598754883,0.4815555512905121
1760467547942905000,1.687905029296875,2.5262224674224854,-9.120841979980469,3.328416347503662
1760467547959627800,1.704627685546875,3.3104701042175293,-8.80798053741455,4.6271209716796875
1760467547976435000,1.72143505859375,3.7286159992218018,-8.659625053405762,5.172684192657471
1760467547993162200,1.738162353515625,1.7521443367004395,-9.079565048217773,4.59721040725708
1760467548009938400,1.7549384765625,1.9932212829589844,-8.983254432678223,3.9529430866241455
1760467548026733300,1.7717333984375,3.3170504570007324,-8.961718559265137,3.521636724472046
1760467548043484400,1.788484375,3.1166515350341797,-8.796614646911621,3.37687087059021
1760467548060251600,1.805251708984375,3.335594654083252,-7.953144073486328,3.9589250087738037
1760467548076985000,1.821985107421875,2.1714866161346436,-7.610372543334961,5.950351715087891
1760467548093774000,1.838774169921875,0.31405797600746155,-8.046463966369629,6.489933013916016
1760467548110531600,1.855531494140625,0.9332008361816406,-8.004590034484863,6.656832695007324
1760467548127326700,1.87232666015625,0.8626125454902649,-8.088338851928711,7.081558704376221
1760467548144057000,1.88905712890625,0.5605186820030212,-9.580862045288086,4.824528694152832
1760467548160838700,1.905838623046875,-2.311466693878174,-11.60519027709961,0.875174880027771
1760467548177591300,1.92259130859375,-1.4524433612823486,-12.852448463439941,-1.5936198234558105
1760467548194347800,1.93934765625,4.136591911315918,-11.11884880065918,-0.34636107087135315
1760467548211116300,1.9561162109375,3.1657042503356934,-8.986245155334473,0.9942178130149841
1760467548227879200,1.972879150390625,-1.3244273662567139,-7.977670669555664,-0.5718846321105957
1760467548244643600,1.9896435546875,-1.8143577575683594,-7.516454219818115,-1.9621145725250244
1760467548261404400,2.006404296875,-0.31465616822242737,-7.620542049407959,0.24586252868175507
1760467548278160400,2.023160400390625,-0.29371899366378784,-7.733603000640869,2.245065927505493
1760467548294908400,2.039908447265625,-0.30568310618400574,-8.861220359802246,4.308277130126953
1760467548311699200,2.05669921875,0.9182456731796265,-8.95693302154541,5.228915691375732
1760467548328477200,2.073477294921875,1.3770694732666016,-8.9312105178833,6.278766632080078
1760467548345201000,2.090200927734375,0.13040883839130402,-8.709874153137207,5.038686275482178
1760467548361955600,2.10695556640625,-0.97148597240448,-9.263813018798828,2.953341245651245
1760467548378725000,2.12372509765625,-0.47916272282600403,-10.350752830505371,1.3878371715545654
1760467548395486500,2.140486572265625,0.5216353535652161,-9.875777244567871,2.971287488937378
1760467548412276700,2.15727685546875,0.09870393574237823,-6.254838466644287,7.295716285705566
1760467548429041000,2.174041015625,-1.566102385520935,-5.056034088134766,6.821339130401611
1760467548445781800,2.19078173828125,1.9519450664520264,-4.927420139312744,3.8919260501861572
1760467548462520600,2.2075205078125,1.074377417564392,-5.913262844085693,2.3563320636749268
1760467548479329800,2.224329833984375,-1.174277663230896,-7.8795647621154785,2.7212376594543457
1760467548496087800,2.241087890625,1.0701899528503418,-9.352945327758789,4.706682205200195
1760467548512829700,2.25782958984375,2.2169501781463623,-11.756535530090332,10.248459815979004
1760467548529620200,2.2746201171875,6.567101955413818,-14.033307075500488,11.432308197021484
1760467548546390300,2.291390380859375,2.3958137035369873,-13.569697380065918,8.465208053588867
1760467548563141600,2.3081416015625,-0.7226324677467346,-12.571889877319336,3.173480987548828
1760467548579932700,2.3249326171875,2.6321048736572266,-11.344970703125,0.3481557071208954
1760467548596672800,2.3416728515625,3.7489547729492188,-10.122836112976074,1.7994025945663452
1760467548613395200,2.358395263671875,3.865006685256958,-9.655637741088867,3.5126636028289795
1760467548630186800,2.375186767578125,2.9138598442077637,-9.718449592590332,4.593023300170898
1760467548646963700,2.391963623046875,1.3674981594085693,-9.305686950683594,5.663212776184082
1760467548663675400,2.40867529296875,0.31405797600746155,-8.082955360412598,6.057430744171143
1760467548680472000,2.42547216796875,1.4321043491363525,-7.406384468078613,5.765506267547607
1760467548697248300,2.442248291015625,2.3054845333099365,-7.136593341827393,5.780461311340332
1760467548714015700,2.459015625,1.6301103830337524,-6.740581512451172,4.677370071411133
1760467548730786600,2.47578662109375,1.353141188621521,-6.571887493133545,4.057629108428955
1760467548747503000,2.492503173828125,0.6813562512397766,-6.713662147521973,5.471786975860596
1760467548764306000,2.509305908203125,-1.6193426847457886,-7.417750358581543,6.574878215789795
1760467548781069800,2.52606982421875,-1.6510475873947144,-8.58185863494873,3.177070379257202
1760467548797823500,2.542823486328125,-0.022133609279990196,-9.725028991699219,-0.050847481936216354
1760467548814583000,2.5595830078125,2.9425735473632812,-10.244272232055664,-0.9152546525001526
1760467548831358000,2.57635791015625,3.0137600898742676,-10.412965774536133,-0.06161518394947052
1760467548848086300,2.593086181640625,1.2759727239608765,-11.909676551818848,-0.35832518339157104
1760467548864861200,2.609861083984375,-2.431107759475708,-9.56471061706543,-0.13160525262355804
1760467548881624800,2.626624755859375,-2.3120648860931396,-8.393424034118652,1.4901303052902222
1760467548898412800,2.643412841796875,-0.981655478477478,-7.340581893920898,2.379662036895752
1760467548915176700,2.6601767578125,-0.617946445941925,-8.569893836975098,2.7798616886138916
1760467548931935000,2.67693505859375,0.3846462368965149,-10.115657806396484,3.570091485977173
1760467548948668000,2.69366796875,0.02153540402650833,-10.083952903747559,5.354538917541504
1760467548965457400,2.71045751953125,0.13040883839130402,-9.57906723022461,6.592226505279541
1760467548982195500,2.727195556640625,0.7124629616737366,-9.30867862701416,5.902495384216309
1760467548998960400,2.74396044921875,-0.11126625537872314,-9.594022750854492,4.3447675704956055
1760467549015756500,2.760756591796875,-0.6400800347328186,-8.924032211303711,3.252444267272949
1760467549032527000,2.777527099609375,-0.5455635786056519,-6.791429042816162,3.5150563716888428
1760467549049273000,2.794273193359375,0.6999006271362305,-4.290929317474365,5.55015230178833
1760467549066010000,2.811010009765625,2.090728759765625,-3.871587038040161,5.499902725219727
1760467549082784500,2.827784423828125,-0.6293123364448547,-4.911866664886475,3.937389612197876
1760467549099572500,2.844572509765625,-1.4506487846374512,-6.036493301391602,3.5479576587677
1760467549116337200,2.861337158203125,-0.5102694034576416,-7.409375190734863,5.616552829742432
1760467549133092000,2.878092041015625,2.68534517288208,-9.313464164733887,9.166305541992188
1760467549149863400,2.894863525390625,7.356733322143555,-13.281362533569336,12.27817153930664
1760467549166614500,2.911614501953125,1.690529227256775,-13.570295333862305,10.426126480102539
1760467549183395000,2.92839501953125,-3.480360507965088,-12.629916191101074,5.302495002746582
1760467549200145200,2.945145263671875,2.861815929412842,-11.345568656921387,2.6111676692962646
1760467549216910800,2.961910888671875,4.8915276527404785,-10.567901611328125,1.8801604509353638
1760467549233647900,2.97864794921875,4.202992916107178,-10.369894981384277,2.970689296722412
1760467549250449000,2.995448974609375,3.3858439922332764,-10.225728034973145,4.55055046081543
1760467549267172000,3.012172119140625,2.9048867225646973,-9.100502967834473,6.400800704956055
1760467549283971800,3.028971923828125,1.3627125024795532,-8.260622024536133,7.023532867431641
1760467549300709600,3.045709716796875,0.38703906536102295,-8.15234661102295,6.449853420257568
1760467549317506600,3.062506591796875,1.1575279235839844,-7.64865779876709,5.894120216369629
1760467549334260000,3.079260009765625,2.118844509124756,-6.698108673095703,6.535397052764893
1760467549351018500,3.0960185546875,2.268994092941284,-6.555736064910889,6.297310829162598
1760467549367783200,3.112783203125,-0.760917603969574,-6.978068828582764,6.437889099121094
1760467549384543200,3.129543212890625,-2.0141584873199463,-7.967501163482666,4.4482574462890625
1760467549401319200,3.146319091796875,-1.6474584341049194,-9.21117115020752,0.5593222975730896
1760467549418052400,3.16305224609375,1.552941918373108,-10.12881851196289,-1.2586246728897095
1760467549434841900,3.179841796875,4.061816215515137,-9.632308006286621,-0.4456632137298584
1760467549451602700,3.196602783203125,3.260220766067505,-9.724431037902832,0.14057832956314087
1760467549468339000,3.2133388671875,-0.13579268753528595,-10.360323905944824,-0.20099709928035736
1760467549485130800,3.230130859375,-1.7413766384124756,-8.861220359802246,1.5200406312942505
1760467549501872400,3.246872314453125,-1.062413215637207,-7.707880020141602,3.7878382205963135
1760467549518634800,3.263634765625,-1.8765711784362793,-7.592426300048828,5.035097122192383
1760467549535394000,3.28039404296875,-1.9471594095230103,-8.930013656616211,5.720640659332275
1760467549552182000,3.29718212890625,0.5180460810661316,-9.452845573425293,7.618149280548096
1760467549568928000,3.313927978515625,1.9818553924560547,-9.487542152404785,8.391031265258789
1760467549585709600,3.33070947265625,0.18424734473228455,-9.893723487854004,6.379863262176514
1760467549602472000,3.347471923828125,-0.31405797600746155,-10.045069694519043,4.41475772857666
1760467549619210200,3.364210205078125,0.28534409403800964,-10.264012336730957,4.1078782081604
1760467549635999000,3.3809990234375,0.4013960063457489,-9.53659439086914,6.0879387855529785
1760467549652737000,3.397737060546875,0.631106972694397,-7.588837146759033,6.848856449127197
1760467549669526300,3.4145263671875,-0.07417750358581543,-5.128417015075684,6.541378974914551
1760467549686282500,3.431282470703125,-1.252044439315796,-3.6807594299316406,5.284548759460449
1760467549703026700,3.448026611328125,-1.308275818824768,-3.570091485977173,2.843869686126709
1760467549719790300,3.464790283203125,-0.6628118753433228,-4.545764923095703,1.3142578601837158
1760467549736553700,3.4815537109375,-1.1150553226470947,-5.888736724853516,2.7984061241149902
1760467549753302000,3.498302001953125,-0.2805584669113159,-7.094120979309082,6.303293228149414
1760467549770069500,3.515069580078125,3.0424740314483643,-10.095916748046875,9.562317848205566
1760467549786837200,3.531837158203125,7.901698589324951,-13.152149200439453,10.898110389709473
1760467549803615700,3.54861572265625,-0.7651050686836243,-13.26820182800293,9.229117393493652
1760467549820389400,3.565389404296875,-0.6185446381568909,-12.31944751739502,7.747361660003662
1760467549837153800,3.58215380859375,3.5778679847717285,-11.573485374450684,3.8255252838134766
1760467549853908500,3.598908447265625,4.395017147064209,-11.196615219116211,3.119044303894043
1760467549870660000,3.61566015625,4.137190341949463,-10.317253112792969,4.724030017852783
1760467549887448800,3.63244873046875,3.184248685836792,-9.505488395690918,6.353542327880859
1760467549904203800,3.649203857421875,1.8161523342132568,-8.783453941345215,7.581060409545898
1760467549920975600,3.6659755859375,2.021935224533081,-8.261817932128906,7.512266635894775
1760467549937733400,3.6827333984375,0.4911268353462219,-7.238288402557373,6.919445037841797
1760467549954507800,3.6995078125,0.4450650215148926,-6.071787357330322,6.2638115882873535
1760467549971235800,3.71623583984375,1.2167502641677856,-5.089533805847168,7.097710132598877
1760467549987987500,3.732987548828125,0.885344386100769,-4.848456859588623,6.769893646240234
1760467550004787000,3.749786865234375,-0.08853443711996078,-5.161318302154541,5.649454116821289
1760467550021529600,3.766529541015625,-1.9076778888702393,-5.9539408683776855,3.702893018722534
1760467550038295600,3.783295654296875,-1.8305093050003052,-7.952546119689941,1.0959128141403198
1760467550055080700,3.800080810546875,-0.08015955984592438,-9.100502967834473,0.7501499056816101
1760467550071824000,3.816823974609375,2.9700911045074463,-9.92961597442627,0.389431893825531
1760467550088615400,3.833615478515625,2.8677978515625,-9.78843879699707,0.9379864931106567
1760467550105332200,3.850332275390625,0.8273184299468994,-10.803594589233398,0.5353940725326538
1760467550122103600,3.867103515625,-1.898106575012207,-9.78245735168457,0.9475577473640442
1760467550138868000,3.883867919921875,-2.0315065383911133,-8.24985408782959,3.61017107963562
1760467550155662300,3.900662353515625,-1.1617153882980347,-8.053643226623535,4.972883701324463
1760467550172393500,3.9173935546875,-0.4941178858280182,-8.595617294311523,5.01296329498291
1760467550189168600,3.934168701171875,0.20039889216423035,-9.29312515258789,5.952146530151367
1760467550205948400,3.950948486328125,0.388235479593277,-9.591629981994629,6.5629143714904785
1760467550222695700,3.96769580078125,-0.36311084032058716,-9.482157707214355,6.123831272125244
1760467550239479000,3.98447900390625,-0.47976094484329224,-9.860821723937988,6.0747785568237305
1760467550256245800,4.001245849609375,0.25004997849464417,-10.000802040100098,6.148955821990967
1760467550272968000,4.017968017578125,0.9577272534370422,-8.85224723815918,8.633902549743652
1760467550289778000,4.03477783203125,0.5856433510780334,-5.553741455078125,9.33858871459961
1760467550306495500,4.05149560546875,-1.4261223077774048,-3.280559778213501,7.607381343841553
1760467550323295200,4.068295166015625,-1.4374881982803345,-2.239083766937256,4.858027935028076
1760467550340019000,4.08501904296875,0.28534409403800964,-2.6315066814422607,3.022733211517334
1760467550356809200,4.101809326171875,1.1700903177261353,-4.615755081176758,1.689931035041809
1760467550373580000,4.118580078125,0.32243284583091736,-5.566901683807373,1.4452649354934692
1760467550390310100,4.13531005859375,2.4466612339019775,-6.9134626388549805,3.7800614833831787
1760467550407087600,4.152087646484375,2.2121646404266357,-11.417951583862305,10.176076889038086
1760467550423845000,4.16884521484375,6.110072612762451,-12.434901237487793,13.220345497131348
1760467550440636000,4.185635986328125,-1.994417667388916,-13.140783309936523,11.912069320678711
1760467550457408000,4.202407958984375,0.23330020904541016,-12.708879470825195,8.465208053588867
1760467550474119200,4.219119140625,3.912863254547119,-12.056835174560547,5.432305812835693
1760467550490904300,4.235904296875,4.107280254364014,-11.559725761413574,4.671986103057861
1760467550507659500,4.252659423828125,4.497310161590576,-10.863414764404297,4.984847545623779
1760467550524448000,4.269447998046875,3.869194269180298,-9.726823806762695,5.460421085357666
1760467550541191200,4.286191162109375,1.705484390258789,-7.99800968170166,7.234699249267578
1760467550557949400,4.302949462890625,0.28953152894973755,-6.643671989440918,7.959724426269531
1760467550574741800,4.31974169921875,1.4482558965682983,-6.430112838745117,7.325028419494629
1760467550591479800,4.336479736328125,1.1353943347930908,-5.697908878326416,7.225128173828125
1760467550608245000,4.353244873046875,1.3070793151855469,-5.282155990600586,7.232306480407715
1760467550625035300,4.37003515625,0.7639086246490479,-5.527420520782471,7.5427751541137695
1760467550641774000,4.386774169921875,-1.3435698747634888,-6.424728870391846,6.346961975097656
1760467550658542300,4.403542236328125,-2.6877379417419434,-7.664210796356201,3.2470602989196777
1760467550675322000,4.420322021484375,-0.7280163168907166,-9.599406242370605,-0.14656038582324982
1760467550692062500,4.4370625,2.324627161026001,-10.236495018005371,-0.8620143532752991
1760467550708851700,4.453851806640625,3.2380871772766113,-10.232307434082031,1.2089736461639404
1760467550725614300,4.4706142578125,1.9591234922409058,-10.719246864318848,2.362314224243164
1760467550742334500,4.48733447265625,-0.6747759580612183,-11.394621849060059,1.2783654928207397
1760467550759143400,4.504143310546875,-1.7593228816986084,-8.525029182434082,2.744567632675171
1760467550775901000,4.52090087890625,-1.7371892929077148,-7.361518859863281,4.205984115600586
1760467550792668400,4.53766845703125,-2.0057835578918457,-7.393223762512207,4.9154558181762695
1760467550809425400,4.55442529296875,-0.11246266216039658,-8.061419486999512,6.278168201446533
1760467550826156000,4.571156005859375,1.5308083295822144,-9.099306106567383,7.635497093200684
1760467550842958000,4.5879580078125,1.5672988891601562,-9.42353343963623,8.105687141418457
1760467550859715000,4.604715087890625,0.9290133714675903,-8.331808090209961,7.99800968170166
1760467550876478200,4.621478271484375,0.6251249313354492,-7.824530124664307,7.695915699005127
1760467550893248800,4.638248779296875,-0.6323033571243286,-8.206185340881348,6.401997089385986
1760467550910005500,4.655005615234375,-1.7611174583435059,-6.304489612579346,6.451648235321045
1760467550926750700,4.671750732421875,-1.1132607460021973,-3.888935089111328,6.44387149810791
1760467550943517000,4.688516845703125,0.34576287865638733,-3.0664021968841553,5.8683977127075195
1760467550960300800,4.70530078125,1.643869161605835,-3.125624656677246,4.253840446472168
1760467550977047000,4.722047119140625,0.5802595019340515,-4.314857482910156,3.0723843574523926
1760467550993804300,4.73880419921875,0.14297115802764893,-5.522634506225586,1.6055840253829956
1760467551010558500,4.755558349609375,-0.8123632669448853,-5.964110374450684,3.500101327896118
1760467551027314700,4.772314697265625,2.8319056034088135,-10.596016883850098,7.319046497344971
1760467551044111000,4.789111083984375,9.199206352233887,-13.47757339477539,10.200602531433105
1760467551060856000,4.80585595703125,-2.407777786254883,-14.161920547485352,11.596217155456543
1760467551077639200,4.82263916015625,-3.3672995567321777,-12.80160140991211,7.984251022338867
1760467551094408000,4.839407958984375,5.79063081741333,-12.790833473205566,7.2813591957092285
1760467551111172600,4.856172607421875,4.395017147064209,-11.56570816040039,5.532206058502197
1760467551127924700,4.8729248046875,3.8811583518981934,-11.184651374816895,5.496912002563477
1760467551144698400,4.889698486328125,3.5503506660461426,-10.7826566696167,5.213960647583008
1760467551161456600,4.90645654296875,3.555734395980835,-9.377471923828125,7.338787078857422
1760467551178178000,4.923177978515625,0.503689169883728,-6.994818687438965,9.05264663696289
1760467551194967600,4.939967529296875,-0.7052844762802124,-5.066802024841309,9.041280746459961
1760467551211762000,4.956761962890625,-0.029312077909708023,-4.156930923461914,8.746963500976562
1760467551228482300,4.973482421875,-1.0558329820632935,-3.991826295852661,8.449654579162598
1760467551245258500,4.990258544921875,0.16331014037132263,-4.591228485107422,7.392027378082275
1760467551262041300,5.007041259765625,-2.6075785160064697,-5.219344615936279,4.741377830505371
1760467551278773200,5.023773193359375,-0.8548358678817749,-6.869793891906738,0.15194423496723175
1760467551295541200,5.040541259765625,2.6159534454345703,-8.783453941345215,-0.7525427341461182
1760467551312338000,5.057337890625,4.044468402862549,-10.481760025024414,-1.0893324613571167
1760467551329089500,5.074089599609375,2.472982168197632,-10.610373497009277,0.6269195079803467
1760467551345854200,5.090854248046875,1.0061819553375244,-11.230712890625,1.3609179258346558
1760467551362578000,5.107577880859375,-1.0839486122131348,-10.916655540466309,3.2368907928466797
1760467551379375000,5.124375,-1.3866406679153442,-8.350951194763184,4.802993297576904
1760467551396147200,5.141147216796875,-1.594218134880066,-8.37846851348877,6.020341873168945
1760467551412910000,5.15791015625,-1.2047861814498901,-7.728219032287598,5.690132141113281
1760467551429663500,5.17466357421875,-0.908674418926239,-8.73499870300293,5.712863922119141
1760467551446421800,5.191421875,0.16271193325519562,-8.667402267456055,6.022136211395264
1760467551463195600,5.208195556640625,0.024526432156562805,-8.591429710388184,6.591030120849609
1760467551479955700,5.224955810546875,-0.33798620104789734,-8.893523216247559,6.877570629119873
1760467551496695300,5.2416953125,0.06999006122350693,-8.842676162719727,6.364310264587402
1760467551513496800,5.258496826171875,-0.46839502453804016,-8.2157564163208,6.294320106506348
1760467551530252800,5.275252685546875,-0.9571290612220764,-5.736194133758545,6.775277137756348
1760467551547019000,5.29201904296875,-1.5840486288070679,-3.8632121086120605,5.937789440155029
1760467551563761200,5.30876123046875,-2.255833625793457,-2.538186550140381,4.7371907234191895
1760467551580527400,5.32552734375,0.8997012972831726,-2.2468605041503906,3.855435371398926
1760467551597308000,5.342307861328125,2.719442844390869,-2.7595226764678955,3.9601213932037354
1760467551614070500,5.359070556640625,1.8299111127853394,-4.329812526702881,4.743771076202393
1760467551630808600,5.37580859375,0.09272187948226929,-6.140581130981445,4.618745803833008
1760467551647608000,5.392608154296875,0.3188436031341553,-12.76211929321289,7.781459331512451
1760467551664337000,5.4093369140625,3.434896945953369,-16.1970157623291,10.322038650512695
1760467551681112300,5.4261123046875,0.9038887619972229,-16.398014068603516,12.166306495666504
1760467551697886200,5.44288623046875,0.6340979933738708,-14.757733345031738,9.981060981750488
1760467551714620000,5.459619873046875,3.620938777923584,-13.193426132202148,6.434299945831299
1760467551731401200,5.476401123046875,3.128615617752075,-12.595818519592285,4.494318962097168
1760467551748161000,5.4931611328125,4.980660438537598,-10.984850883483887,4.3752760887146
1760467551764900600,5.509900634765625,4.651647090911865,-10.079167366027832,3.872185230255127
1760467551781692200,5.526692138671875,1.3782658576965332,-8.535796165466309,6.310471534729004
1760467551798471000,5.543470947265625,0.99481600522995,-7.091728210449219,8.361719131469727
1760467551815211000,5.5602109375,1.0492527484893799,-5.697908878326416,8.790034294128418
1760467551831961000,5.576961181640625,-0.8763712644577026,-4.634897232055664,8.714061737060547
1760467551848764400,5.593764404296875,-0.7525427341461182,-4.216751575469971,8.320442199707031
1760467551865494800,5.610494873046875,-1.3154542446136475,-4.770689964294434,6.930212497711182
1760467551882238700,5.62723876953125,-2.1583259105682373,-4.466203689575195,4.0695929527282715
1760467551899055000,5.64405517578125,-2.2845473289489746,-4.812564373016357,1.0199406147003174
1760467551915786000,5.660785888671875,0.486939400434494,-5.752943992614746,0.23988047242164612
1760467551932528400,5.6775283203125,2.7433712482452393,-5.982056617736816,-0.33798620104789734
1760467551949318400,5.694318359375,2.94975209236145,-7.53140926361084,-1.109073281288147
1760467551966075400,5.711075439453125,1.8167506456375122,-10.073782920837402,-1.8305093050003052
1760467551982815700,5.727815673828125,-0.008973085321485996,-11.09073257446289,-1.5170495510101318
1760467551999601400,5.744601318359375,0.2476571500301361,-11.258829116821289,2.8761727809906006
1760467552016366300,5.761366455078125,-1.9148563146591187,-8.34736156463623,7.397411346435547
1760467552033127700,5.778127685546875,-3.150151014328003,-9.034700393676758,8.663214683532715
1760467552049898000,5.79489794921875,-1.196411371231079,-9.503693580627441,9.376873970031738
1760467552066669300,5.81166943359375,1.5439687967300415,-10.433902740478516,9.175278663635254
1760467552083416600,5.82841650390625,1.4859428405761719,-10.461421012878418,8.01775074005127
1760467552100187000,5.845186767578125,1.3758729696273804,-9.18006420135498,8.711071014404297
1760467552116948700,5.86194873046875,1.5798611640930176,-8.754141807556152,8.25105094909668
1760467552133697500,5.878697509765625,-0.6394818425178528,-8.70090103149414,6.380461692810059
1760467552150471400,5.895471435546875,-2.7427730560302734,-6.957131862640381,6.395416736602783
1760467552167254500,5.912254638671875,-2.4640090465545654,-5.38205623626709,6.708278179168701
1760467552183986200,5.928986083984375,-2.142772674560547,-4.009174346923828,4.818546772003174
1760467552200793300,5.94579345703125,-1.846660852432251,-3.0957143306732178,2.2809581756591797
1760467552217550000,5.962550048828125,-1.2023934125900269,-1.97407865524292,1.3920245170593262
1760467552234275000,5.979275146484375,0.3278166949748993,-1.83828604221344,2.1828525066375732
1760467552251077000,5.9960771484375,1.0348957777023315,-2.5573291778564453,3.1304101943969727
1760467552267837400,6.01283740234375,4.695316314697266,-3.929612874984741,4.192225456237793
1760467552284591600,6.029591552734375,-0.5790630578994751,-6.116652965545654,4.222135543823242
1760467552301355300,6.046355224609375,1.5086746215820312,-13.8311128616333,6.311069488525391
1760467552318104800,6.063104736328125,7.584649562835693,-14.882759094238281,11.210373878479004
1760467552334867500,6.079867431640625,-0.6951149702072144,-15.131611824035645,19.785053253173828
1760467552351657200,6.0966572265625,-1.6115660667419434,-13.189836502075195,16.844274520874023
1760467552368395000,6.11339501953125,8.084151268005371,-14.730216026306152,9.893723487854004
1760467552385182200,6.13018212890625,3.6161532402038574,-12.622737884521484,4.783252239227295
1760467552401949000,6.146948974609375,3.001796007156372,-9.941579818725586,4.929812908172607
1760467552418685000,6.163684814453125,3.675973892211914,-8.742177963256836,5.242076396942139
1760467552435448300,6.1804482421875,2.641676187515259,-8.916853904724121,5.525027275085449
1760467552452240600,6.19724072265625,1.3094722032546997,-8.58066177368164,5.55733060836792
1760467552468996400,6.213996337890625,2.1134605407714844,-7.015756130218506,6.424130439758301
1760467552485740300,6.230740234375,1.2795618772506714,-5.994020938873291,7.520641803741455
1760467552502520300,6.247520263671875,-0.14476576447486877,-5.431707382202148,8.806185722351074
1760467552519290000,6.2642900390625,-0.6867401003837585,-4.643272399902344,8.806783676147461
1760467552536028000,6.28102783203125,0.05563312768936157,-4.876572608947754,7.572685241699219
1760467552552800800,6.29780078125,-0.8949156403541565,-4.697110652923584,5.904289722442627
1760467552569586400,6.31458642578125,-0.2111666053533554,-4.6995038986206055,2.933002471923828
1760467552586343000,6.331343017578125,1.2418749332427979,-5.266602516174316,2.0673987865448
1760467552603080700,6.348080810546875,1.7258232831954956,-6.3116679191589355,2.0404794216156006
1760467552619844400,6.36484423828125,1.4691931009292603,-8.587242126464844,1.7204394340515137
1760467552636603600,6.381603759765625,2.324028968811035,-11.380264282226562,2.303689956665039
1760467552653399300,6.3983994140625,2.45204496383667,-14.181661605834961,3.803989887237549
1760467552670137900,6.415137939453125,-0.7573283910751343,-15.997814178466797,7.7222371101379395
1760467552686909400,6.431909423828125,0.5665007829666138,-15.368501663208008,9.76989459991455
1760467552703686100,6.44868603515625,0.900897741317749,-15.75015640258789,11.803793907165527
1760467552720408600,6.46540869140625,-0.5700899958610535,-13.878969192504883,10.630114555358887
1760467552737183500,6.48218359375,-1.0241280794143677,-13.01396369934082,8.912666320800781
1760467552753949400,6.498949462890625,0.4013960063457489,-11.726625442504883,8.056633949279785
1760467552770740000,6.515739990234375,0.8620143532752991,-9.92243766784668,7.380063056945801
1760467552787459600,6.53245947265625,0.19561325013637543,-8.211568832397461,7.16949462890625
1760467552804297500,6.54929736328125,-1.3615161180496216,-6.594619274139404,6.581458568572998
1760467552821024800,6.566024658203125,-2.6075785160064697,-5.581258773803711,6.025127410888672
1760467552837772000,6.58277197265625,-1.7838492393493652,-4.802993297576904,6.283552169799805
1760467552854562600,6.5995625,-0.46899324655532837,-4.380660057067871,6.6107707023620605
1760467552871298000,6.616298095703125,0.35533416271209717,-4.454837322235107,6.653243541717529
1760467552888054500,6.633054443359375,0.6340979933738708,-4.532604217529297,6.3601226806640625
1760467552904846300,6.649846435546875,1.1802598237991333,-4.3417768478393555,7.034300327301025
1760467552921574000,6.666573974609375,1.5553346872329712,-3.834498405456543,9.07119083404541
1760467552938363600,6.68336376953125,0.03469592705368996,-3.3996028900146484,10.955538749694824
1760467552955130000,6.700130126953125,-1.3603196144104004,-3.81655216217041,12.831511497497559
1760467552971883500,6.716883544921875,-0.09092725813388824,-4.619344234466553,15.312270164489746
1760467552988647700,6.733647705078125,2.4526431560516357,-5.31685209274292,16.80060577392578
1760467553005400800,6.75040087890625,3.4133615493774414,-5.090131759643555,17.022541046142578
1760467553022142700,6.767142822265625,2.932404041290283,-4.97348165512085,16.139589309692383
1760467553038933200,6.783933349609375,3.5156545639038086,-5.372485160827637,14.81695556640625
1760467553055679500,6.800679443359375,5.533402442932129,-5.867201328277588,13.697712898254395
1760467553072445000,6.81744482421875,6.873383045196533,-6.011368751525879,13.039687156677246
1760467553089212200,6.834212158203125,5.807380676269531,-5.434698581695557,12.817154884338379
1760467553105969400,6.850969482421875,5.169693470001221,-4.7401814460754395,13.252050399780273
1760467553122763500,6.867763427734375,5.908477306365967,-4.548755645751953,12.681960105895996
1760467553139547600,6.884547607421875,7.082156658172607,-4.457828521728516,11.378469467163086
1760467553156286500,6.901286376953125,8.513663291931152,-4.576871395111084,9.711869239807129
1760467553173059300,6.918059326171875,9.497113227844238,-5.306682586669922,7.847261905670166
1760467553189822500,6.934822509765625,9.349356651306152,-5.912664890289307,6.561119556427002
1760467553206582000,6.95158203125,8.9910306930542,-5.1774702072143555,4.322634220123291
1760467553223353000,6.96835302734375,9.041878700256348,-4.1042890548706055,3.356531858444214
1760467553240087600,6.985087646484375,8.213961601257324,-3.5270206928253174,2.706880569458008
1760467553256869600,7.00186962890625,8.213961601257324,-3.555734395980835,2.596810817718506
1760467553273645800,7.018645751953125,7.898707389831543,-2.647658348083496,2.121237277984619
1760467553290402000,7.035402099609375,7.255636692047119,-2.4059832096099854,1.114457130432129
1760467553307158500,7.052158447265625,6.452844619750977,-2.0338993072509766,1.0414760112762451
1760467553323920400,7.06892041015625,6.269793510437012,-1.1413763761520386,1.5308083295822144
1760467553340700700,7.08570068359375,5.696114540100098,-0.43130627274513245,1.4967105388641357
1760467553357456100,7.1024560546875,5.116453170776367,0.7082754969596863,1.1670992374420166
1760467553374213600,7.119213623046875,5.289334297180176,1.4422738552093506,1.256830096244812
1760467553390987500,7.135987548828125,6.034698486328125,1.2532408237457275,1.3573286533355713
1760467553407740000,7.152739990234375,7.086942672729492,0.6496513485908508,1.4470595121383667
1760467553424486700,7.169486572265625,8.123632431030273,0.646660327911377,1.2580264806747437
1760467553441276200,7.186276123046875,8.160721778869629,0.8410771489143372,0.36670008301734924
1760467553458050600,7.203050537109375,6.808178424835205,1.2340983152389526,0.05503492057323456
1760467553474815500,7.2198154296875,5.912066459655762,2.1756739616394043,0.8237292170524597
1760467553491560700,7.236560791015625,7.36032247543335,2.8002007007598877,0.6400800347328186
1760467553508301600,7.253301513671875,8.322237014770508,1.8873388767242432,-0.003589233849197626
1760467553525073700,7.27007373046875,7.850253105163574,0.9690931439399719,-0.29431718587875366
1760467553541820700,7.286820556640625,7.902894973754883,0.786640465259552,-1.2233306169509888
1760467553558597000,7.30359716796875,7.690532207489014,2.0644078254699707,-0.8273184299468994
1760467553575378400,7.32037841796875,8.45324420928955,2.8624141216278076,-0.2805584669113159
1760467553592142800,7.337142822265625,9.220144271850586,2.7379872798919678,0.4289134442806244
1760467553608876300,7.353876220703125,9.382257461547852,2.424527645111084,-0.08673982322216034
1760467553625673200,7.370673095703125,8.606983184814453,2.173879384994507,-0.9158528447151184
1760467553642422500,7.387422607421875,7.956733703613281,2.48315167427063,-0.9487541913986206
1760467553659179800,7.4041796875,8.309076309204102,2.7589244842529297,-0.5210371017456055
1760467553675952600,7.42095263671875,9.46301555633545,3.2578279972076416,0.012562318705022335
1760467553692729600,7.4377294921875,10.085148811340332,3.345165967941284,-0.27696922421455383
1760467553709467000,7.454466796875,9.715457916259766,2.901895761489868,-0.7663014531135559
1760467553726230000,7.47122998046875,8.621339797973633,2.6907291412353516,-1.3052847385406494
1760467553742986800,7.48798681640625,8.71645450592041,2.940778970718384,-0.8003991842269897
1760467553759775000,7.50477490234375,9.55753231048584,2.651247501373291,-0.7704889178276062
1760467553776539100,7.5215390625,9.955338478088379,2.9144580364227295,-1.0031908750534058
1760467553793270500,7.5382705078125,9.585647583007812,3.3535408973693848,-1.815554141998291
1760467553810072000,7.555072021484375,10.112667083740234,2.4699912071228027,-1.817348837852478
1760467553826802400,7.571802490234375,8.586644172668457,2.7637102603912354,-2.163709878921509
1760467553843592200,7.58859228515625,7.678567886352539,3.4396824836730957,-2.222334146499634
1760467553860355000,7.60535498046875,8.263014793395996,3.1860432624816895,-2.410170555114746
