time,seconds_elapsed,z,y,x
1760467546367145200,0.112145263671875,1.4873042106628418,-0.7354817390441895,-1.4485142230987549
1760467546383891700,0.1288916015625,1.5754214525222778,-1.6003142595291138,-0.841008722782135
1760467546409031700,0.15403173828125,1.0204503536224365,-2.498133420944214,-0.38667771220207214
1760467546425801500,0.170801513671875,0.6641632318496704,-2.2629501819610596,-0.15057829022407532
1760467546442563800,0.187563720703125,0.6097962260246277,-2.2508857250213623,0.012522737495601177
1760467546459312600,0.204312744140625,0.5293147563934326,-2.9042060375213623,-0.05711590126156807
1760467546476078600,0.22107861328125,0.6246097087860107,-3.6868772506713867,-0.0809396430850029
1760467546492845000,0.237844970703125,0.7877107262611389,-4.3760857582092285,0.008704829961061478
1760467546509626400,0.25462646484375,0.9462302923202515,-4.390594005584717,0.06948592513799667
1760467546526411300,0.271411376953125,1.1583532094955444,-4.442059516906738,0.04382958263158798
1760467546543144700,0.288144775390625,1.520138144493103,-4.847368240356445,0.30405816435813904
1760467546559946200,0.3049462890625,1.887115478515625,-4.870428562164307,0.5642867684364319
1760467546576663600,0.32166357421875,2.1786508560180664,-4.355621814727783,0.6704245805740356
1760467546593466400,0.33846630859375,2.917492389678955,-2.973386526107788,0.8608618378639221
1760467546610222000,0.35522216796875,4.34096097946167,-3.5300376415252686,-0.864679753780365
1760467546626979000,0.37197900390625,4.3091959953308105,-2.1503984928131104,-1.8229745626449585
1760467546643729400,0.3887294921875,3.137403964996338,-1.6155858039855957,-0.5558874011039734
1760467546660512300,0.40551220703125,2.1568124294281006,-2.1587977409362793,1.4691308736801147
1760467546677275400,0.422275390625,1.2919800281524658,-1.411251425743103,2.749504566192627
1760467546694006800,0.4390068359375,1.0025825500488281,-0.07376197725534439,2.5948028564453125
1760467546710808300,0.455808349609375,0.9567676782608032,1.3474160432815552,1.821447491645813
1760467546727533300,0.472533203125,1.017701506614685,3.760639190673828,1.0077749490737915
1760467546744302800,0.489302734375,1.2773191928863525,6.781062602996826,0.19685132801532745
1760467546761098200,0.50609814453125,0.6105598211288452,6.567870616912842,-1.2046263217926025
1760467546777829600,0.52282958984375,-0.08933904021978378,5.81299352645874,-0.15561792254447937
1760467546794596600,0.5395966796875,-0.5141957998275757,0.526107668876648,1.4958562850952148
1760467546811356200,0.556356201171875,-0.3865249752998352,-0.7414376735687256,0.0032070425804704428
1760467546828111400,0.573111328125,-0.1621847152709961,-0.8642216324806213,-0.12049316614866257
1760467546844893000,0.589892822265625,-0.3425426781177521,-0.826195240020752,0.32589662075042725
1760467546861671700,0.606671630859375,-0.38499781489372253,-0.7137960195541382,0.4862487316131592
1760467546878435000,0.62343505859375,-0.15745051205158234,-0.5781839489936829,0.2382374405860901
1760467546895154000,0.64015380859375,0.12568552792072296,0.09025534242391586,0.15271630883216858
1760467546911961300,0.65696142578125,0.30054569244384766,0.3897320330142975,0.44104471802711487
1760467546928693200,0.673693359375,0.34147366881370544,0.6928738951683044,0.32360586524009705
1760467546945462500,0.690462646484375,0.24144448339939117,0.7255551815032959,0.014202617108821869
1760467546962226200,0.70722607421875,0.20631973445415497,0.3897320330142975,0.003817907767370343
1760467546978991600,0.72399169921875,0.33246341347694397,0.16432274878025055,0.0377209298312664
1760467546995761700,0.74076171875,0.3972151279449463,0.17547103762626648,-0.0503963828086853
1760467547012522500,0.7575224609375,0.33460143208503723,0.11927144229412079,0.018478672951459885
1760467547029311000,0.77431103515625,0.2617557644844055,0.14324790239334106,0.02367102913558483
1760467547046067500,0.7910673828125,0.26282477378845215,0.29306259751319885,-0.044135015457868576
1760467547062831400,0.807831298828125,0.24266621470451355,0.2739730477333069,-0.06429356336593628
1760467547079594800,0.8245947265625,0.19486601650714874,0.15332718193531036,-0.0679587572813034
1760467547096357400,0.841357421875,0.16890424489974976,0.10567969083786011,-0.0884227454662323
1760467547113121300,0.858121337890625,0.14233160018920898,0.06734789162874222,-0.025503624230623245
1760467547129884400,0.874884521484375,0.1371392458677292,0.16172657907009125,-0.024892758578062057
1760467547146642000,0.891641845703125,0.08949175477027893,0.3700316250324249,-0.10002918541431427
1760467547163417000,0.9084169921875,-0.06200282275676727,0.4550946056842804,-0.1748601794242859
1760467547180131800,0.9251318359375,-0.2551889419555664,0.22281309962272644,-0.14706580340862274
1760467547196927000,0.941927001953125,-0.36422839760780334,-0.035582900047302246,-0.36224308609962463
1760467547213712100,0.958712158203125,-0.365755558013916,0.04993823543190956,-0.39965859055519104
1760467547230439700,0.975439697265625,-0.4184426963329315,-0.13866640627384186,-0.21303924918174744
1760467547247227400,0.992227294921875,-0.47800204157829285,-0.3842342495918274,-0.1508837193250656
1760467547263985200,1.008985107421875,-0.46670106053352356,-0.41370847821235657,0.12217304855585098
1760467547280759300,1.02575927734375,-0.43905940651893616,-0.5253441333770752,0.2632829248905182
1760467547297517600,1.042517578125,-0.3799581825733185,-0.5054910182952881,0.2785545587539673
1760467547314280700,1.05928076171875,-0.34834590554237366,-0.14737124741077423,0.09697485715150833
1760467547331043600,1.076043701171875,-0.2828305959701538,0.15729780495166779,0.009773843921720982
1760467547347780400,1.0927802734375,-0.32009339332580566,0.2721404731273651,-0.08185594528913498
1760467547364570400,1.1095703125,-0.5059491395950317,0.14996741712093353,-0.11911872029304504
1760467547381296000,1.126296142578125,-0.7296785116195679,0.014202617108821869,-0.19853121042251587
1760467547398069200,1.1430693359375,-0.8718574047088623,-0.039248090237379074,-0.24236078560352325
1760467547414854400,1.1598544921875,-1.0462594032287598,-0.13072516024112701,-0.3831652104854584
1760467547431582200,1.176582275390625,-1.2447906732559204,-0.2866485118865967,-0.483957976102829
1760467547448355300,1.193355224609375,-1.2270755767822266,-0.09651670604944229,-0.5381723046302795
1760467547465156000,1.210156005859375,-1.0458012819290161,0.0858265683054924,-0.4043927788734436
1760467547481888800,1.226888671875,-0.903164267539978,0.20922134816646576,-0.1618792861700058
1760467547498657500,1.243657470703125,-0.660192608833313,0.3211624026298523,0.18356500566005707
1760467547515439900,1.26043994140625,-0.5500841736793518,-0.25473082065582275,0.2565633952617645
1760467547532169000,1.2771689453125,-0.5245805382728577,-0.5511531829833984,0.17073683440685272
1760467547548967200,1.29396728515625,-0.6533203721046448,-0.3675881624221802,0.2330450862646103
1760467547565705000,1.310705078125,-0.6336199641227722,0.08445212244987488,0.2454151064157486
1760467547582456300,1.327456298828125,-0.2632829248905182,0.40362921357154846,0.12247848510742188
1760467547599256800,1.3442568359375,0.22113321721553802,0.26679539680480957,-0.164170041680336
1760467547615996200,1.36099609375,0.551916778087616,-0.32100969552993774,-0.25045475363731384
1760467547632760800,1.3777607421875,0.9436340928077698,-0.7562511563301086,-0.14095716178417206
1760467547649547000,1.394547119140625,1.2510520219802856,-0.5516113042831421,-0.06643159687519073
1760467547666303000,1.411302978515625,1.439351201057434,-0.10903944820165634,0.0074830991216003895
1760467547683072000,1.428072021484375,1.4718798398971558,0.2961169183254242,0.13866640627384186
1760467547699830300,1.444830322265625,1.4625641107559204,0.6885978579521179,0.16890424489974976
1760467547716599800,1.461599853515625,1.5890132188796997,0.8559749126434326,0.15042556822299957
1760467547733346800,1.478346923828125,1.8379408121109009,0.4112650156021118,0.164170041680336
1760467547750107100,1.495107177734375,1.777923345565796,-0.14340060949325562,0.3423899710178375
1760467547766867700,1.51186767578125,1.251968264579773,-0.43539419770240784,0.5783366560935974
1760467547783628000,1.5286279296875,0.8158105611801147,-0.24159720540046692,0.46990808844566345
1760467547800420600,1.545420654296875,0.6614143252372742,0.299476683139801,0.2620611786842346
1760467547817166800,1.562166748046875,0.4369213581085205,0.9063712954521179,-0.0377209298312664
1760467547833895000,1.57889501953125,0.15164729952812195,0.6420193910598755,0.03222314268350601
1760467547850684700,1.5956845703125,-0.07925976812839508,-0.12629638612270355,0.4444044530391693
1760467547867470000,1.612469970703125,-0.4671591818332672,0.2816088795661926,0.451123982667923
1760467547884210200,1.629210205078125,-0.9613491892814636,-0.19562959671020508,0.6748533844947815
1760467547900994600,1.64599462890625,-0.9732610583305359,-0.7438811659812927,0.5540547966957092
1760467547917767200,1.66276708984375,-0.5929974317550659,-1.1328495740890503,0.20616702735424042
1760467547934520600,1.6795205078125,-0.31031954288482666,-1.013578176498413,-0.17791450023651123
1760467547951254500,1.696254638671875,-0.3776674270629883,-0.2825251817703247,-0.4764748811721802
1760467547968011800,1.71301171875,-0.41981714963912964,0.09758572280406952,-0.36300668120384216
1760467547984780300,1.7297802734375,-0.3599523603916168,-0.06398813426494598,-0.13347405195236206
1760467548001550300,1.74655029296875,-0.33429601788520813,-0.34773504734039307,-0.21151208877563477
1760467548018350000,1.76335009765625,-0.346818745136261,-0.39874228835105896,-0.25702154636383057
1760467548035098400,1.780098388671875,-0.3419318199157715,-0.10751228034496307,-0.18448130786418915
1760467548051859200,1.796859130859375,-0.3539963960647583,0.3425426781177521,-0.20143280923366547
1760467548068597000,1.813596923828125,-0.5229006409645081,0.7554876208305359,-0.21319197118282318
1760467548085368300,1.830368408203125,-0.8859072923660278,1.0074695348739624,-0.22372940182685852
1760467548102130700,1.847130615234375,-1.2098186016082764,0.8717046976089478,-0.33826664090156555
1760467548118919700,1.863919677734375,-1.5140295028686523,0.5705481171607971,-0.22937989234924316
1760467548135641000,1.88064111328125,-1.8361082077026367,0.2974913716316223,-0.07208210229873657
1760467548152426200,1.89742626953125,-1.8156442642211914,0.07513642311096191,0.15592335164546967
1760467548169177300,1.91417724609375,-1.3388638496398926,-0.5736024379730225,0.1823432743549347
1760467548185948200,1.9309482421875,-0.6491970419883728,-1.2035572528839111,-0.04795292019844055
1760467548202717000,1.947717041015625,-0.4378376603126526,-0.8984300494194031,0.09605856239795685
1760467548219485700,1.964485595703125,-0.6104071140289307,-0.3349068760871887,0.36392298340797424
1760467548236230100,1.981230224609375,-0.3988949954509735,-0.1108720451593399,0.08261952549219131
1760467548252993500,1.99799365234375,0.18157969415187836,0.12370020896196365,-0.22571471333503723
1760467548269769700,2.014769775390625,0.6038402915000916,0.10873401165008545,-0.2837468981742859
1760467548286551800,2.0315517578125,0.9089674949645996,-0.3700316250324249,-0.2200642079114914
1760467548303315200,2.048315185546875,1.1617130041122437,-0.6539312601089478,-0.17287486791610718
1760467548320079600,2.06507958984375,1.5042556524276733,-0.42119157314300537,-0.1514945775270462
1760467548336841500,2.081841552734375,1.4950926303863525,0.17623461782932281,-0.09651670604944229
1760467548353606000,2.09860595703125,1.3845261335372925,0.4607451260089874,-0.09315694868564606
1760467548370335700,2.115335693359375,1.4656184911727905,0.5769622325897217,-0.15851953625679016
1760467548387114500,2.132114501953125,1.7702875137329102,0.4634940028190613,-0.06673702597618103
1760467548403889200,2.14888916015625,1.8952094316482544,-0.14844025671482086,0.2396118938922882
1760467548420640000,2.165639892578125,1.2638801336288452,-0.7619016766548157,0.6238461136817932
1760467548437421300,2.18242138671875,0.7053966522216797,-0.42180246114730835,0.5015203952789307
1760467548454169300,2.19916943359375,0.5534439086914062,0.18906278908252716,0.4951062798500061
1760467548470927600,2.215927734375,0.41370847821235657,0.6979135274887085,0.20815233886241913
1760467548487699700,2.23269970703125,0.21471913158893585,0.3572034537792206,-0.11804971098899841
1760467548504452400,2.249452392578125,0.17440202832221985,0.08994990587234497,-0.0003054326225537807
1760467548521213400,2.26621337890625,-0.09743300825357437,-0.004428773187100887,0.23594669997692108
1760467548538012200,2.28301220703125,-0.6669121384620667,-0.09941831976175308,0.6429356932640076
1760467548554764500,2.2997646484375,-1.175152063369751,-0.17318029701709747,0.3767511546611786
1760467548571552000,2.316552001953125,-1.0045678615570068,-0.6472117304801941,-0.18387043476104736
1760467548588288500,2.33328857421875,-0.5884159207344055,-0.8347473740577698,-0.28588494658470154
1760467548605052700,2.350052734375,-0.2822197377681732,-0.35964691638946533,-0.24159720540046692
1760467548621826600,2.36682666015625,-0.1264491081237793,0.09407325088977814,-0.19028452038764954
1760467548638572800,2.38357275390625,-0.1036943718791008,0.16523905098438263,-0.18539759516716003
1760467548655319600,2.400319580078125,-0.2177734673023224,0.04902193695306778,-0.36621370911598206
1760467548672108500,2.417108642578125,-0.4317290186882019,0.058795779943466187,-0.6152940392494202
1760467548688840200,2.433840087890625,-0.6927211880683899,0.30375275015830994,-0.6759223937988281
1760467548705634600,2.450634521484375,-1.0532844066619873,0.8732318878173828,-0.5464189648628235
1760467548722393600,2.4673935546875,-1.3588697910308838,1.0749701261520386,-0.48487427830696106
1760467548739136300,2.48413623046875,-1.5862643718719482,1.1212431192398071,-0.3923282027244568
1760467548755925500,2.500925537109375,-1.8364136219024658,0.8472700715065002,-0.13561208546161652
1760467548772692000,2.51769189453125,-2.169335126876831,0.24434609711170197,-0.03436116874217987
1760467548789447700,2.53444775390625,-2.1058051586151123,-0.5196936130523682,0.022602014243602753
1760467548806215200,2.551215087890625,-1.7418822050094604,-0.7964155673980713,0.12293662875890732
1760467548822947600,2.567947509765625,-1.3095424175262451,-0.6498079299926758,0.42042800784111023
1760467548839747000,2.5847470703125,-0.846659243106842,-0.47342056035995483,0.45265114307403564
1760467548856479200,2.601479248046875,-0.33597588539123535,-0.36911532282829285,0.29733866453170776
1760467548873268000,2.61826806640625,0.18387043476104736,-0.5279402732849121,-0.1310305893421173
1760467548889987000,2.634987060546875,0.4957171380519867,-0.4329507350921631,-0.42470407485961914
1760467548906775000,2.651775146484375,0.7638869881629944,-0.2122756689786911,-0.3465133011341095
1760467548923558100,2.66855810546875,1.1380419731140137,0.0065668015740811825,-0.2587014436721802
1760467548940274700,2.685274658203125,1.5786285400390625,0.2347249686717987,-0.16539175808429718
1760467548957050600,2.702050537109375,1.8087719678878784,0.3523165285587311,-0.1420261710882187
1760467548973856800,2.718856689453125,1.7907514572143555,0.25824329257011414,-0.11423180252313614
1760467548990564900,2.73556494140625,1.6978999376296997,0.4046982228755951,-0.016951510682702065
1760467549007376100,2.752376220703125,1.6540703773498535,0.14416420459747314,0.09789115190505981
1760467549024105500,2.76910546875,1.6702582836151123,-0.22571471333503723,0.2557998299598694
1760467549040900000,2.785900146484375,1.5271631479263306,-0.45142942667007446,0.4268420934677124
1760467549057631500,2.802631591796875,1.084591269493103,-0.2538145184516907,0.6575964093208313
1760467549074402600,2.819402587890625,0.5552765130996704,0.45952337980270386,0.9086620807647705
1760467549091188000,2.83618798828125,0.29917123913764954,1.1279627084732056,0.41523563861846924
1760467549107949600,2.852949462890625,0.11988230794668198,1.0074695348739624,-0.1189660057425499
1760467549124717600,2.869717529296875,0.01771509274840355,0.5528330206871033,-0.04001167416572571
1760467549141436400,2.8864365234375,-0.07284568250179291,0.14477506279945374,0.2776382565498352
1760467549158219500,2.903219482421875,-0.5514585971832275,0.21609358489513397,0.735634446144104
1760467549175007500,2.920007568359375,-1.1766791343688965,-0.2243402600288391,0.4421137273311615
1760467549191725000,2.93672509765625,-1.141707181930542,-0.7673994898796082,-0.4824308156967163
1760467549208496400,2.953496337890625,-0.9057604670524597,-0.8620835542678833,-0.5739079117774963
1760467549225297400,2.97029736328125,-0.613461434841156,-0.33887749910354614,-0.38667771220207214
1760467549242040300,2.987040283203125,-0.3827070891857147,0.11362093687057495,-0.24037547409534454
1760467549258817300,3.0038173828125,-0.2750420868396759,0.40194934606552124,-0.1362229436635971
1760467549275595000,3.020594970703125,-0.35842517018318176,0.19914206862449646,-0.03329215571284294
1760467549292333000,3.0373330078125,-0.5862779021263123,0.036193765699863434,-0.12629638612270355
1760467549309113600,3.054113525390625,-0.8190175890922546,0.02871066704392433,-0.38209620118141174
1760467549325873000,3.070872802734375,-1.1354458332061768,0.29077184200286865,-0.5180137157440186
1760467549342627800,3.0876279296875,-1.4998269081115723,0.6357579827308655,-0.5167919993400574
1760467549359398000,3.10439794921875,-1.811979055404663,0.9494373202323914,-0.2603813111782074
1760467549376174000,3.121174072265625,-2.1093177795410156,0.6600399017333984,-0.07162395119667053
1760467549392925000,3.137925048828125,-2.188271999359131,-0.09529497474431992,0.08261952549219131
1760467549409691100,3.154691162109375,-1.871996521949768,-0.812908947467804,0.12171489745378494
1760467549426435600,3.171435546875,-1.474017858505249,-0.9779952764511108,0.35246923565864563
1760467549443186000,3.18818603515625,-1.2583824396133423,-0.7531968355178833,0.6588181853294373
1760467549459978000,3.20497802734375,-0.9579893946647644,-0.4550946056842804,0.6316346526145935
1760467549476753700,3.221753662109375,-0.3065016269683838,-0.24908030033111572,0.2762638032436371
1760467549493497000,3.2384970703125,0.28878653049468994,-0.04001167416572571,-0.1137736514210701
1760467549510268400,3.255268310546875,0.5765040516853333,0.05009094998240471,-0.13500121235847473
1760467549527027700,3.27202783203125,0.7987062931060791,-0.10903944820165634,-0.1310305893421173
1760467549543804400,3.288804443359375,1.080467939376831,-0.13057245314121246,-0.24755313992500305
1760467549560548400,3.30554833984375,1.260367751121521,0.12370020896196365,-0.1765400618314743
1760467549577338000,3.322338134765625,1.28434419631958,0.4178318381309509,0.04917465150356293
1760467549594091800,3.339091796875,1.4159855842590332,0.504574716091156,0.06444628536701202
1760467549610856000,3.35585595703125,1.6549866199493408,0.2554943859577179,-0.045204028487205505
1760467549627622700,3.37262255859375,1.9506454467773438,-0.3640756905078888,-0.01466076634824276
1760467549644346600,3.3893466796875,1.9656116962432861,-0.6185010671615601,0.026419922709465027
1760467549661139200,3.40613916015625,1.7385225296020508,-0.7060074806213379,0.2399173229932785
1760467549677907700,3.42290771484375,1.3012956380844116,-0.9294314980506897,0.6534730792045593
1760467549694644000,3.43964404296875,0.8371908068656921,-0.7101308703422546,0.8854491710662842
1760467549711400200,3.456400146484375,0.5636758804321289,-0.11194105446338654,0.6663012504577637
1760467549728171500,3.473171630859375,0.44623705744743347,0.4948008358478546,0.09834930300712585
1760467549744932900,3.489932861328125,0.41233405470848083,1.096961259841919,-0.3700316250324249
1760467549761686300,3.506686279296875,0.3549126982688904,1.2185235023498535,-0.18524488806724548
1760467549778450200,3.5234501953125,0.2373211532831192,0.5004513263702393,0.17669276893138885
1760467549795239200,3.5402392578125,-0.3897320330142975,0.25564709305763245,0.5575672388076782
1760467549812001800,3.557001708984375,-0.7987062931060791,0.028557950630784035,-0.08109235763549805
1760467549828757500,3.573757568359375,-0.8440630435943604,-0.5991060733795166,-0.4538728892803192
1760467549845543700,3.590543701171875,-0.6068946123123169,-0.7922922372817993,-0.2790127098560333
1760467549862288000,3.607287841796875,-0.28099802136421204,-0.3937026560306549,-0.19089539349079132
1760467549879065900,3.62406591796875,-0.1258382350206375,0.06490442901849747,-0.20433442294597626
1760467549895833000,3.6408330078125,-0.09300423413515091,0.2356412708759308,-0.15913039445877075
1760467549912594000,3.657593994140625,-0.2243402600288391,-0.06750060617923737,-0.20265454053878784
1760467549929357300,3.674357421875,-0.4251621961593628,-0.1950187236070633,-0.2278527319431305
1760467549946078700,3.69107861328125,-0.7231117486953735,-0.13561208546161652,-0.43646320700645447
1760467549962883600,3.707883544921875,-1.0922271013259888,0.19104810059070587,-0.6433938145637512
1760467549979621600,3.72462158203125,-1.598328948020935,0.6424775123596191,-0.5835290551185608
1760467549996399400,3.7413994140625,-2.0923662185668945,0.8643743395805359,-0.46242499351501465
1760467550013173200,3.75817333984375,-2.4521658420562744,0.688903272151947,-0.21410827338695526
1760467550029937000,3.77493701171875,-2.6061038970947266,0.14584407210350037,-0.08567385375499725
1760467550046668000,3.79166796875,-2.573575258255005,-0.6762278079986572,0.08888089656829834
1760467550063469800,3.8084697265625,-2.473393440246582,-0.9911288619041443,0.2968805134296417
1760467550080201500,3.825201416015625,-1.9973766803741455,-0.5568036437034607,0.5065600275993347
1760467550096992800,3.84199267578125,-1.4408783912658691,-0.18875735998153687,0.6012440919876099
1760467550113753900,3.85875390625,-0.6814202070236206,-0.1696678251028061,0.4554000496864319
1760467550130517000,3.87551708984375,0.09682214260101318,-0.30695977807044983,-0.03344487398862839
1760467550147272000,3.89227197265625,0.48258355259895325,-0.36132678389549255,-0.3805690407752991
1760467550164024300,3.9090244140625,0.750142514705658,-0.3588833212852478,-0.39843684434890747
1760467550180813300,3.925813232421875,1.1467467546463013,-0.09636399149894714,-0.313373863697052
1760467550197533700,3.94253369140625,1.4987578392028809,0.1869247704744339,-0.1944078654050827
1760467550214324500,3.959324462890625,1.72935950756073,0.4121813178062439,-0.14294247329235077
1760467550231101000,3.976100830078125,1.985922932624817,0.6650795340538025,-0.20295998454093933
1760467550247834400,3.99283447265625,2.247831344604492,0.7762570381164551,-0.3182607889175415
1760467550264625400,4.00962548828125,2.4862215518951416,0.46731191873550415,-0.17852537333965302
1760467550281358600,4.026358642578125,2.2711970806121826,-0.07437284290790558,0.25824329257011414
1760467550298124300,4.043124267578125,1.6259706020355225,-0.835969090461731,0.8286387324333191
1760467550314914000,4.0599140625,0.9648616313934326,-1.5517504215240479,1.085965633392334
1760467550331669200,4.076669189453125,0.517250120639801,-1.4824172258377075,0.9179777503013611
1760467550348432000,4.093431884765625,0.3266601860523224,-0.5016731023788452,0.645684540271759
1760467550365172000,4.110171875,0.35155296325683594,0.5783366560935974,0.2444988191127777
1760467550381975800,4.126975830078125,0.4101960062980652,0.5911648273468018,0.1560760736465454
1760467550398694100,4.143694091796875,0.5280929803848267,0.4132503271102905,0.5926920175552368
1760467550415468300,4.16046826171875,0.31459560990333557,0.4940372705459595,0.27290403842926025
1760467550432257000,4.177257080078125,-0.24755313992500305,1.0112874507904053,0.3269656300544739
1760467550449011200,4.19401123046875,-0.6430884003639221,0.5022839307785034,-0.17837265133857727
1760467550465777400,4.21077734375,-0.9338602423667908,-0.6597344875335693,-0.32391130924224854
1760467550482521000,4.22752099609375,-0.7625125646591187,-0.5485569834709167,-0.3078760802745819
1760467550499278800,4.24427880859375,-0.5849034786224365,-0.02626720629632473,-0.38957929611206055
1760467550516072700,4.26107275390625,-0.4586070775985718,0.33307427167892456,-0.2750420868396759
1760467550532838100,4.277838134765625,-0.22281309962272644,0.6020076870918274,-0.13209961354732513
1760467550549572000,4.294572021484375,-0.26511552929878235,0.4144720733165741,-0.11255192011594772
1760467550566369800,4.311369873046875,-0.5461135506629944,0.1771509200334549,-0.2583959996700287
1760467550583101400,4.328101318359375,-0.8907942175865173,0.031001411378383636,-0.2788599729537964
1760467550599867400,4.344867431640625,-1.267392635345459,0.1849394589662552,-0.36331209540367126
1760467550616628000,4.3616279296875,-1.6659822463989258,0.5299255847930908,-0.39645153284072876
1760467550633414700,4.37841455078125,-2.1369593143463135,0.5070181488990784,-0.08750644326210022
1760467550650148000,4.395148193359375,-2.520582675933838,-0.05467243865132332,0.12324206531047821
1760467550666944000,4.411944091796875,-2.4921774864196777,-0.6082690954208374,0.08765916526317596
1760467550683713000,4.428713134765625,-1.9979875087738037,-0.775340735912323,0.10583240538835526
1760467550700446700,4.44544677734375,-1.4311045408248901,-0.5772676467895508,0.4343251883983612
1760467550717196800,4.46219677734375,-1.0699304342269897,-0.45402559638023376,0.5340489149093628
1760467550733991200,4.4789912109375,-0.6125451326370239,-0.3211624026298523,0.3214678466320038
1760467550750745300,4.495745361328125,0.19165897369384766,-0.44089198112487793,0.015271631069481373
1760467550767522300,4.512522216796875,0.7728972434997559,-0.3188716471195221,-0.2993239760398865
1760467550784241200,4.5292412109375,1.129489779472351,0.04688390716910362,-0.4108068645000458
1760467550801025500,4.546025634765625,1.492343783378601,0.2701551616191864,-0.45066583156585693
1760467550817812500,4.5628125,1.7858645915985107,0.4308127164840698,-0.3712533414363861
1760467550834544600,4.579544677734375,2.041053533554077,0.6243042945861816,-0.22250767052173615
1760467550851319800,4.59631982421875,2.225229263305664,0.5438227653503418,-0.06994406878948212
1760467550868077600,4.61307763671875,2.244471549987793,0.3072652220726013,-0.004428773187100887
1760467550884834600,4.62983447265625,2.0815234184265137,0.0354301854968071,0.029932396486401558
1760467550901641000,4.646640869140625,1.956906795501709,-0.2915354371070862,0.19532416760921478
1760467550918397000,4.66339697265625,1.6752979755401611,-0.7252497673034668,0.33078351616859436
1760467550935155700,4.68015576171875,1.1841622591018677,-1.124755620956421,0.5285511612892151
1760467550951923000,4.6969228515625,0.6307183504104614,-1.321912407875061,0.8958339095115662
1760467550968677000,4.713677001953125,0.23273965716362,-0.8736900091171265,1.087492823600769
1760467550985453300,4.730453369140625,0.004581489134579897,-0.21090123057365417,0.7710646390914917
1760467551002191600,4.747191650390625,-0.08506298810243607,0.3006984293460846,0.42088615894317627
1760467551018954000,4.7639541015625,-0.17012597620487213,0.8168795704841614,0.2814561724662781
1760467551035738000,4.780738037109375,0.06108652427792549,1.1305588483810425,0.038637228310108185
1760467551052490200,4.797490234375,-0.15042556822299957,1.0610729455947876,0.5418374538421631
1760467551069230800,4.81423095703125,-0.43707409501075745,0.8275696635246277,0.06230825558304787
1760467551086009000,4.831009033203125,-0.4105014503002167,-0.5308418869972229,-0.741895854473114
1760467551102742500,4.847742431640625,-0.48548516631126404,-1.0253373384475708,-0.1719585657119751
1760467551119553500,4.864553466796875,-0.2968805134296417,-0.23640485107898712,-0.318566232919693
1760467551136291800,4.881291748046875,-0.22250767052173615,0.716697633266449,-0.40454551577568054
1760467551153079000,4.8980791015625,0.04077525436878204,0.9789115786552429,-0.23396138846874237
1760467551169817000,4.914817138671875,0.1849394589662552,0.8072584271430969,0.03680463135242462
1760467551186595300,4.93159521484375,-0.047189339995384216,0.4928155243396759,0.003054326167330146
1760467551203354400,4.948354248046875,-0.5653557777404785,0.06368270516395569,-0.2382374405860901
1760467551220128000,4.9651279296875,-1.1835514307022095,-0.09483683109283447,-0.4075998365879059
1760467551236900900,4.98190087890625,-1.819003939628601,0.2093740701675415,-0.7579310536384583
1760467551253639400,4.998639404296875,-2.3327417373657227,0.28695395588874817,-0.6525567770004272
1760467551270422500,5.015422607421875,-2.503478527069092,-0.16798794269561768,-0.5453499555587769
1760467551287153700,5.032153564453125,-2.21698260307312,-0.865290641784668,-0.2574796974658966
1760467551303904800,5.04890478515625,-1.976759910583496,-0.82207190990448,0.17547103762626648
1760467551320742400,5.065742431640625,-1.4301882982254028,-0.43936482071876526,0.41828998923301697
1760467551337475300,5.082475341796875,-1.1023063659667969,-0.26542094349861145,0.2808452844619751
1760467551354195500,5.099195556640625,-0.6067419052124023,-0.5813909769058228,0.17791450023651123
1760467551371003600,5.116003662109375,0.01237002108246088,-0.7947356700897217,-0.07376197725534439
1760467551387759400,5.13275927734375,0.4323398768901825,-0.39935314655303955,-0.21899518370628357
1760467551404491300,5.1494912109375,0.6261368989944458,-0.03695734590291977,-0.2638937830924988
1760467551421277000,5.16627685546875,0.8005388975143433,-0.0806342139840126,-0.24159720540046692
1760467551438051600,5.183051513671875,1.1073459386825562,-0.2503020465373993,-0.23197607696056366
1760467551454772700,5.199772705078125,1.490511178970337,-0.24236078560352325,-0.1661553531885147
1760467551471561500,5.2165615234375,1.8049540519714355,-0.20525072515010834,-0.11194105446338654
1760467551488316700,5.233316650390625,2.018451452255249,-0.10705413669347763,-0.09147707372903824
1760467551505081900,5.250081787109375,2.146733283996582,-0.1771509200334549,0.09086620807647705
1760467551521842000,5.266842041015625,2.1149682998657227,-0.5021312236785889,0.3885102868080139
1760467551538616300,5.2836162109375,1.7554739713668823,-0.9387471675872803,0.6530149579048157
1760467551555379000,5.30037890625,1.3158037662506104,-1.330159068107605,0.7345654368400574
1760467551572155600,5.31715576171875,0.940732479095459,-1.4563027620315552,0.7434229850769043
1760467551588906200,5.33390625,0.6444628238677979,-0.930347740650177,0.9500481486320496
1760467551605688600,5.3506884765625,0.3006984293460846,0.005955935921519995,1.0949759483337402
1760467551622449000,5.367448974609375,-0.28328874707221985,0.5314527750015259,0.6551529765129089
1760467551639187000,5.38418701171875,-0.8645270466804504,0.8575021028518677,0.3718642294406891
1760467551655937300,5.400937255859375,-0.8475755453109741,0.9802860021591187,-0.21273382008075714
1760467551672743700,5.41774365234375,-0.5827654600143433,0.9039278626441956,-0.3208569586277008
1760467551689482000,5.43448193359375,-0.4034765064716339,0.5242751240730286,-0.22739458084106445
1760467551706224400,5.451224365234375,-0.7383833527565002,-0.6968445181846619,-0.508698046207428
1760467551723032300,5.4680322265625,-0.8222246170043945,-0.9053022861480713,-0.5835290551185608
1760467551739782700,5.48478271484375,-0.589179515838623,-0.16630806028842926,-0.7898487448692322
1760467551756541400,5.50154150390625,-0.3248275816440582,0.8761335015296936,-0.4355469346046448
1760467551773320200,5.5183203125,0.10064005106687546,1.3280210494995117,0.050854530185461044
1760467551790072300,5.535072265625,0.230448916554451,1.359480619430542,0.03145955875515938
1760467551806806500,5.551806640625,-0.0032070425804704428,1.1166616678237915,-0.11652254313230515
1760467551823608300,5.5686083984375,-0.4129449129104614,0.6702718734741211,-0.13225232064723969
1760467551840371700,5.585371826171875,-0.9709703326225281,0.37262779474258423,-0.38438695669174194
1760467551857136000,5.60213623046875,-1.4903584718704224,0.22342395782470703,-0.5074763298034668
1760467551873896200,5.618896240234375,-1.842369556427002,0.25992316007614136,-0.5639813542366028
1760467551890669300,5.63566943359375,-1.8393152952194214,-0.1137736514210701,-0.5838344693183899
1760467551907424000,5.652424072265625,-1.6716327667236328,-0.7660250067710876,-0.6046038866043091
1760467551924186000,5.66918603515625,-1.648267149925232,-1.1438452005386353,-0.39125919342041016
1760467551940942600,5.685942626953125,-1.6213890314102173,-1.000749945640564,-0.04138612002134323
1760467551957712100,5.702712158203125,-1.3744467496871948,-0.4889976382255554,0.2073887437582016
1760467551974482200,5.719482177734375,-0.7996225953102112,-0.07590000331401825,0.2811507284641266
1760467551991222000,5.736221923828125,0.1316414624452591,0.11453723162412643,0.028405234217643738
1760467552007973400,5.752973388671875,0.8223773241043091,0.15851953625679016,-0.05467243865132332
1760467552024774100,5.769774169921875,0.9428704977035522,-0.11728613078594208,-0.13973543047904968
1760467552041510000,5.786510009765625,0.9224064946174622,-0.16264286637306213,-0.4086688458919525
1760467552058272500,5.8032724609375,0.8575021028518677,0.06780604273080826,-0.5713117122650146
1760467552075062000,5.82006201171875,1.0575604438781738,0.37110063433647156,-0.3400992155075073
1760467552091793400,5.83679345703125,1.5593862533569336,0.7774787545204163,0.011759156361222267
1760467552108593400,5.853593505859375,1.769982099533081,0.9245445728302002,0.32620203495025635
1760467552125343700,5.87034375,1.7931948900222778,0.5242751240730286,0.6751587986946106
1760467552142126600,5.887126708984375,1.8194621801376343,-0.28695395588874817,0.8700248003005981
1760467552158882300,5.90388232421875,1.6604844331741333,-0.9462302923202515,0.8326093554496765
1760467552175616500,5.920616455078125,1.355051875114441,-1.2056952714920044,0.6681338548660278
1760467552192405800,5.93740576171875,1.112691044807434,-1.415069341659546,0.5152648091316223
1760467552209155300,5.9541552734375,1.057865858078003,-1.4795156717300415,0.4715879559516907
1760467552225942000,5.97094189453125,0.9656252264976501,-1.3385584354400635,0.5717698931694031
1760467552242670600,5.987670654296875,0.7370089292526245,-0.584139883518219,0.6852380633354187
1760467552259431700,6.004431640625,0.5436700582504272,0.4415028691291809,0.432034432888031
1760467552276221200,6.02122119140625,-0.043676864355802536,0.8814785480499268,0.28099802136421204
1760467552292984800,6.03798486328125,-0.5925393104553223,0.8504771590232849,0.3539963960647583
1760467552309704000,6.054703857421875,-0.10659598559141159,0.9605855941772461,0.2961169183254242
1760467552326508500,6.071508544921875,0.18906278908252716,1.5158621072769165,0.1918116807937622
1760467552343279400,6.088279296875,-0.31184670329093933,2.1511619091033936,-0.816421389579773
1760467552360024600,6.105024658203125,-1.2403619289398193,-0.6672175526618958,-0.922711968421936
1760467552376815600,6.121815673828125,-1.3833043575286865,-2.7540860176086426,0.46441030502319336
1760467552393564700,6.138564697265625,-0.7313584089279175,-2.098932981491089,0.33567044138908386
1760467552410328600,6.15532861328125,-0.3776674270629883,-1.1261301040649414,0.1875356286764145
1760467552427076400,6.172076416015625,-0.14416420459747314,-0.6979135274887085,0.3949243724346161
1760467552443867400,6.188867431640625,0.18387043476104736,-0.6200281977653503,0.5319108963012695
1760467552460616700,6.20561669921875,0.4069889783859253,-0.8158105611801147,0.4150829315185547
1760467552477382000,6.2223818359375,0.2838996350765228,-1.00502610206604,0.4317290186882019
1760467552494148900,6.23914892578125,-0.05925392732024193,-0.7490735054016113,0.27947086095809937
1760467552510878700,6.255878662109375,-0.532369077205658,-0.5823072791099548,0.020616702735424042
1760467552527651300,6.2726513671875,-1.0351111888885498,-0.897513747215271,-0.15515977144241333
1760467552544403200,6.2894033203125,-1.3405437469482422,-1.30801522731781,-0.12736541032791138
1760467552561205200,6.306205322265625,-1.5399912595748901,-1.9619464874267578,-0.13454307615756989
1760467552577955000,6.322955078125,-1.5308283567428589,-2.6749789714813232,-0.05375614017248154
1760467552594699800,6.33969970703125,-1.5425875186920166,-2.903900623321533,0.1160643994808197
1760467552611487500,6.356487548828125,-1.6270395517349243,-2.6928467750549316,0.25076019763946533
1760467552628226600,6.3732265625,-1.5584700107574463,-2.001805305480957,0.26893341541290283
1760467552645014800,6.390014892578125,-1.1861475706100464,-1.4575244188308716,0.29565876722335815
1760467552661731800,6.40673193359375,-0.9027060866355896,-0.48548516631126404,0.7426594495773315
1760467552678541800,6.423541748046875,-0.8294022679328918,0.10949759185314178,0.7452555894851685
1760467552695298600,6.440298583984375,-0.6333145499229431,-0.2724458873271942,0.7907650470733643
1760467552712079000,6.4570791015625,-0.5991060733795166,-0.8411614298820496,1.0351111888885498
1760467552728828200,6.473828125,-0.4024074673652649,-1.2046263217926025,0.9442449808120728
1760467552745569800,6.49056982421875,-0.20662516355514526,-1.189354658126831,0.8000807762145996
1760467552762367200,6.5073671875,0.0064140851609408855,-1.112385630607605,1.0283915996551514
1760467552779121400,6.524121337890625,0.2857322096824646,-0.9773843884468079,1.4706580638885498
1760467552795880000,6.5408798828125,0.4712825417518616,-0.7904596328735352,1.7563903331756592
1760467552812627500,6.55762744140625,0.5212207436561584,-0.6224716901779175,1.72935950756073
1760467552829418200,6.574418212890625,0.4940372705459595,-0.7011205554008484,1.523956060409546
1760467552846149000,6.591149169921875,0.32849279046058655,-1.0775662660598755,1.5057828426361084
1760467552862921000,6.6079208984375,0.04535674303770065,-1.5800029039382935,1.7667750120162964
1760467552879704600,6.62470458984375,-0.2652682363986969,-2.163532018661499,2.177276372909546
1760467552896443400,6.641443359375,-0.4648684561252594,-2.6904032230377197,2.5670084953308105
1760467552913202700,6.65820263671875,-0.7367035150527954,-3.115718126296997,2.9080240726470947
1760467552929962000,6.6749619140625,-1.2234103679656982,-3.1974213123321533,3.2006285190582275
1760467552946734300,6.691734375,-1.9941695928573608,-3.001028299331665,3.046079635620117
1760467552963517200,6.70851708984375,-2.710409164428711,-3.042567014694214,2.286468505859375
1760467552980249300,6.725249267578125,-3.327077627182007,-2.7934868335723877,1.7901406288146973
1760467552997020000,6.74202001953125,-4.0159807205200195,-1.9917261600494385,1.771356463432312
1760467553013789200,6.7587890625,-4.609130859375,-1.1264355182647705,1.8779524564743042
1760467553030549500,6.775549560546875,-5.041317939758301,-0.26603180170059204,1.7437148094177246
1760467553047295700,6.792295654296875,-5.220912456512451,0.790154218673706,1.4776830673217773
1760467553064066300,6.80906640625,-5.103626251220703,2.0972530841827393,1.4275920391082764
1760467553080828000,6.825827880859375,-4.620279312133789,3.2339205741882324,1.5717562437057495
1760467553097606000,6.84260595703125,-3.924503803253174,4.081190586090088,1.4300355911254883
1760467553114382800,6.8593828125,-3.4209980964660645,4.648226261138916,1.0403034687042236
1760467553131151400,6.8761513671875,-3.1955888271331787,5.385082721710205,0.7684684991836548
1760467553147912400,6.892912353515625,-3.0198123455047607,5.859571933746338,0.5135849714279175
1760467553164680000,6.909679931640625,-2.697122812271118,6.378349304199219,0.4911356568336487
1760467553181409000,6.926408935546875,-2.336864948272705,7.217220306396484,0.6724098920822144
1760467553198184000,6.943183837890625,-1.8147279024124146,7.91742467880249,0.8287914395332336
1760467553214942200,6.959942138671875,-0.9706648588180542,7.9629340171813965,0.8875871896743774
1760467553231731000,6.97673095703125,-0.13271047174930573,7.299076080322266,1.0097602605819702
1760467553248494300,6.993494384765625,0.34987306594848633,6.303518295288086,1.0914634466171265
1760467553265233400,7.0102333984375,0.4242459237575531,5.096906661987305,1.187522053718567
1760467553282025700,7.027025634765625,0.5375614166259766,4.426177024841309,1.3972015380859375
1760467553298801400,7.043801513671875,0.877966046333313,3.942066192626953,1.4101824760437012
1760467553315550000,7.060550048828125,1.1006264686584473,3.4547483921051025,1.0975720882415771
1760467553332306200,7.07730615234375,1.206153392791748,3.0576860904693604,0.8749117255210876
1760467553349066200,7.094066162109375,1.2602150440216064,2.5555548667907715,0.7609853744506836
1760467553365837600,7.110837646484375,1.191950798034668,1.7617353200912476,0.5499314665794373
1760467553382601000,7.12760107421875,1.0138835906982422,1.3836097717285156,0.2119702398777008
1760467553399338800,7.1443388671875,0.7235698699951172,1.4010194540023804,-0.1310305893421173
1760467553416095500,7.161095458984375,0.49693888425827026,1.4527902603149414,-0.24236078560352325
1760467553432872200,7.1778720703125,0.40454551577568054,1.5398385524749756,-0.03039054572582245
1760467553449654300,7.194654296875,0.48655417561531067,1.4414892196655273,0.22907446324825287
1760467553466380800,7.211380859375,0.5461135506629944,1.2501357793807983,0.2539672255516052
1760467553483180500,7.2281806640625,0.3698789179325104,0.7237225770950317,-0.05467243865132332
1760467553499918600,7.244918701171875,0.14187344908714294,0.23090706765651703,-0.25244006514549255
1760467553516687600,7.2616875,0.17119498550891876,0.28420504927635193,-0.21303924918174744
1760467553533470500,7.278470458984375,0.37797287106513977,0.6313292384147644,-0.15913039445877075
1760467553550203000,7.295202880859375,0.7234171628952026,0.8886561989784241,-0.06643159687519073
1760467553567003400,7.31200341796875,0.8943067193031311,0.4990769028663635,0.029168816283345222
1760467553583751700,7.328751708984375,0.7506006956100464,0.10002918541431427,0.1371392458677292
1760467553600515000,7.34551513671875,0.5108360648155212,-0.03405573591589928,0.1921171247959137
1760467553617262600,7.3622626953125,0.47540587186813354,0.11774427443742752,0.27122417092323303
1760467553634021400,7.379021484375,0.6359107494354248,0.33337971568107605,0.24495697021484375
1760467553650804500,7.395804443359375,0.7863363027572632,0.5135849714279175,0.1033889427781105
1760467553667576800,7.412576904296875,0.7951938509941101,0.570242702960968,0.013591751456260681
1760467553684315400,7.4293154296875,0.5732970237731934,0.44196099042892456,-0.05100724846124649
1760467553701078000,7.446078125,0.27229318022727966,0.12370020896196365,0.04902193695306778
1760467553717867500,7.462867431640625,0.17852537333965302,0.06352998316287994,0.16982053220272064
1760467553734619100,7.479619140625,0.30925053358078003,0.09346238523721695,0.012828170321881771
1760467553751405600,7.496405517578125,0.4524984359741211,0.3338378667831421,-0.1586722433567047
1760467553768126200,7.513126220703125,0.4645630121231079,0.8061894178390503,-0.006872233934700489
1760467553784926500,7.529926513671875,0.24602597951889038,0.6035348773002625,0.4210388660430908
1760467553801683500,7.546683349609375,0.24037547409534454,0.016798794269561768,0.3649919927120209
1760467553818447400,7.563447265625,0.3605632185935974,0.15851953625679016,0.3520110845565796
1760467553835210500,7.58021044921875,0.4888449013233185,-0.06261368840932846,0.17699819803237915
1760467553851967700,7.5969677734375,0.45555275678634644,-0.5809328556060791,-0.0022907445672899485
