time,seconds_elapsed,z,y,x
1760467546406939400,0.151939453125,4.1078782081604,-5.913262844085693,7.695915699005127
1760467546423706000,0.1687060546875,4.077968120574951,-7.65583610534668,7.144370079040527
1760467546440468500,0.185468505859375,3.1375887393951416,-7.107281684875488,5.669793128967285
1760467546457218600,0.202218505859375,2.1200408935546875,-5.897709846496582,4.732405185699463
1760467546473983200,0.218983154296875,1.7533408403396606,-5.935994625091553,3.8398821353912354
1760467546490748200,0.235748046875,2.1708884239196777,-6.716054916381836,4.828117847442627
1760467546507530000,0.252530029296875,1.800000786781311,-7.685746192932129,4.4273200035095215
1760467546524313000,0.26931298828125,2.6321048736572266,-8.094321250915527,5.615954875946045
1760467546541050000,0.286050048828125,2.9383862018585205,-7.932207107543945,4.9160542488098145
1760467546557850600,0.3028505859375,2.4765713214874268,-8.462815284729004,5.60399055480957
1760467546574571300,0.3195712890625,2.925823926925659,-9.075976371765137,6.402595043182373
1760467546591368000,0.336367919921875,-2.5262224674224854,-10.386046409606934,2.02492618560791
1760467546608126500,0.35312646484375,-9.374481201171875,-13.615758895874023,4.607978343963623
1760467546624886800,0.36988671875,1.5104693174362183,-12.536596298217773,10.146764755249023
1760467546641630700,0.386630615234375,9.638289451599121,-8.350353240966797,13.689936637878418
1760467546658417000,0.4034169921875,9.611968994140625,-6.1363935470581055,12.253644943237305
1760467546675180000,0.420179931640625,4.463212490081787,-6.7447686195373535,11.13619613647461
1760467546691914500,0.43691455078125,-1.9657038450241089,-9.757332801818848,8.839086532592773
1760467546708710000,0.4537099609375,-7.442874908447266,-9.941579818725586,6.15134859085083
1760467546725441000,0.47044091796875,-8.906085968017578,-8.96650505065918,5.102096080780029
1760467546742207200,0.487207275390625,-6.961319446563721,-6.153741836547852,8.322834968566895
1760467546758999800,0.503999755859375,-3.6185460090637207,-4.877170562744141,8.662615776062012
1760467546775734000,0.520734130859375,-0.38703906536102295,-4.610969066619873,7.101897716522217
1760467546792501200,0.537501220703125,-12.90628719329834,-8.096115112304688,3.9391841888427734
1760467546809260500,0.554260498046875,-5.821737289428711,-8.720044136047363,1.4572290182113647
1760467546826016000,0.57101611328125,2.5471596717834473,-7.960322856903076,4.191029071807861
1760467546842797600,0.587797607421875,3.8500516414642334,-7.429116249084473,5.172684192657471
1760467546859576300,0.604576416015625,-0.3768695592880249,-8.891729354858398,3.016152858734131
1760467546876339700,0.621339599609375,-2.2271196842193604,-9.878170013427734,1.6079767942428589
1760467546893058600,0.63805859375,0.9553344249725342,-10.070194244384766,1.2197413444519043
1760467546909866200,0.6548662109375,3.4965121746063232,-9.379266738891602,1.3435698747634888
1760467546926600700,0.6716005859375,0.35114672780036926,-9.623334884643555,2.531008243560791
1760467546943367000,0.688366943359375,0.2069791555404663,-9.779465675354004,2.9515466690063477
1760467546960130800,0.705130859375,1.129412293434143,-10.680961608886719,3.3266217708587646
1760467546976895200,0.721895263671875,1.8083757162094116,-10.913663864135742,3.9086756706237793
1760467546993666000,0.738666015625,2.4089741706848145,-10.05404281616211,4.619344234466553
1760467547010428200,0.75542822265625,2.940778970718384,-9.281759262084961,3.9332022666931152
1760467547027212500,0.772212646484375,2.4257240295410156,-9.436694145202637,3.119044303894043
1760467547043972000,0.78897216796875,2.2295124530792236,-9.997811317443848,2.9150562286376953
1760467547060736000,0.805736083984375,2.0039889812469482,-9.587442398071289,3.576073408126831
1760467547077499400,0.82249951171875,1.211964726448059,-9.200403213500977,4.0695929527282715
1760467547094261800,0.83926171875,1.5092729330062866,-8.58066177368164,4.005585193634033
1760467547111026000,0.85602587890625,2.076371908187866,-7.899903774261475,3.531208038330078
1760467547127789000,0.8727890625,1.8807586431503296,-7.494320392608643,3.324826955795288
1760467547144549600,0.889549560546875,1.4344971179962158,-6.996613502502441,4.127020835876465
1760467547161318700,0.906318603515625,1.5308083295822144,-6.273981094360352,4.9292144775390625
1760467547178036500,0.923036376953125,0.43130627274513245,-5.774479389190674,4.820341110229492
1760467547194837200,0.939837158203125,-1.1300104856491089,-5.325226783752441,4.396811485290527
1760467547211611100,0.956611083984375,0.7310073375701904,-4.952544689178467,4.383052825927734
1760467547228344300,0.97334423828125,1.5020943880081177,-4.446462631225586,3.9972102642059326
1760467547245132000,0.990132080078125,1.485344648361206,-4.4955153465271,2.688934564590454
1760467547261892000,1.00689208984375,2.5944180488586426,-4.392025947570801,1.6785650253295898
1760467547278661400,1.023661376953125,2.575275421142578,-5.2941203117370605,1.5720844268798828
1760467547295422000,1.040421875,1.7198412418365479,-6.285944938659668,2.431705951690674
1760467547312185000,1.05718505859375,1.6402798891067505,-7.65164852142334,3.680161237716675
1760467547328948200,1.0739482421875,1.9639091491699219,-8.508278846740723,4.335196495056152
1760467547345685000,1.09068505859375,1.7718851566314697,-8.658429145812988,5.213960647583008
1760467547362475000,1.10747509765625,2.004587173461914,-8.307282447814941,5.815157413482666
1760467547379199500,1.124199462890625,2.1774685382843018,-7.8693952560424805,5.617749214172363
1760467547395975200,1.14097509765625,2.2546372413635254,-7.99083137512207,5.434100151062012
1760467547412758800,1.1577587890625,0.9308080077171326,-8.02492904663086,5.948556900024414
1760467547429486800,1.17448681640625,1.4895321130752563,-8.754739761352539,5.694917678833008
1760467547446263000,1.191262939453125,0.8620143532752991,-10.288538932800293,4.52781867980957
1760467547463057400,1.208057373046875,1.7563318014144897,-10.822138786315918,4.95912504196167
1760467547479796500,1.22479638671875,1.3076776266098022,-10.63250732421875,4.033700942993164
1760467547496558800,1.241558837890625,1.1096714735031128,-12.943375587463379,1.1569297313690186
1760467547513344500,1.258344482421875,0.37148571014404297,-13.610973358154297,0.8159525394439697
1760467547530073600,1.275073486328125,2.7212376594543457,-12.76211929321289,2.4358935356140137
1760467547546871600,1.29187158203125,1.8855443000793457,-9.891928672790527,3.3343982696533203
1760467547563609300,1.308609375,0.19800607860088348,-8.074580192565918,0.9385846853256226
1760467547580361000,1.32536083984375,-1.8143577575683594,-7.150352478027344,-1.537388563156128
1760467547597161500,1.342161376953125,-1.057627558708191,-6.4325056076049805,-0.4546363055706024
1760467547613900800,1.35890087890625,-0.6209374666213989,-6.782455921173096,0.8626125454902649
1760467547630665500,1.37566552734375,0.7573283910751343,-7.223931789398193,2.187039852142334
1760467547647451600,1.39245166015625,1.1778669357299805,-8.303692817687988,3.685544967651367
1760467547664209700,1.409209716796875,1.4488540887832642,-8.730213165283203,4.488935470581055
1760467547680973300,1.425973388671875,1.4416756629943848,-8.841479301452637,4.76829719543457
1760467547697735000,1.44273486328125,0.39122650027275085,-9.007781028747559,3.968496322631836
1760467547714504200,1.459504150390625,-0.6729813814163208,-9.814162254333496,2.8863422870635986
1760467547731254500,1.476254638671875,-1.0145567655563354,-9.678369522094727,3.5545380115509033
1760467547748012300,1.49301220703125,0.012562318705022335,-6.882954120635986,5.74696159362793
1760467547764772400,1.5097724609375,-1.755733609199524,-4.041477680206299,5.425127029418945
1760467547781535000,1.526534912109375,-1.5415760278701782,-3.775874137878418,3.833899974822998
1760467547798323200,1.5433232421875,-0.22612173855304718,-5.811567783355713,2.6937201023101807
1760467547815071200,1.5600712890625,1.2873386144638062,-9.120243072509766,3.47019100189209
1760467547831805200,1.57680517578125,4.457828521728516,-10.701300621032715,5.222335338592529
1760467547848584000,1.593583984375,3.050848960876465,-11.10209846496582,8.114660263061523
1760467547865374500,1.61037451171875,2.950350284576416,-11.598011016845703,12.091530799865723
1760467547882118000,1.627117919921875,2.225325107574463,-13.310673713684082,9.05563735961914
1760467547898899700,1.643899658203125,0.7824530005455017,-13.337593078613281,3.105883836746216
1760467547915668000,1.66066796875,1.7682958841323853,-12.363116264343262,-0.381655216217041
1760467547932425000,1.677425048828125,1.6965112686157227,-10.036096572875977,1.5912270545959473
1760467547949162200,1.694162353515625,2.956930637359619,-8.989236831665039,4.177868366241455
1760467547965913000,1.7109130859375,3.6119658946990967,-8.638688087463379,4.721039295196533
1760467547982688000,1.72768798828125,3.184248685836792,-8.784051895141602,5.315057277679443
1760467547999455000,1.744455078125,2.043470621109009,-9.090332984924316,4.073780536651611
1760467548016256000,1.761256103515625,2.390429735183716,-9.043074607849121,3.8835511207580566
1760467548032998400,1.777998291015625,3.558725595474243,-8.936594009399414,3.366103172302246
1760467548049763800,1.794763916015625,2.905484914779663,-8.465208053588867,3.5300116539001465
1760467548066505000,1.8115048828125,3.36969256401062,-7.689933776855469,4.719244480133057
1760467548083269600,1.82826953125,1.1383854150772095,-7.8077802658081055,6.327221393585205
1760467548100035300,1.845035400390625,0.48454657196998596,-7.983652591705322,6.364908218383789
1760467548116824300,1.86182421875,1.0043872594833374,-7.94716215133667,6.917052268981934
1760467548133548800,1.878548828125,0.7160521745681763,-8.38145923614502,6.43968391418457
1760467548150327800,1.895327880859375,-0.14297115802764893,-10.478768348693848,3.5952160358428955
1760467548167085000,1.9120849609375,-3.2967114448547363,-12.140583992004395,-0.5694918036460876
1760467548183849700,1.928849609375,0.7651050686836243,-12.451650619506836,-1.7258232831954956
1760467548200621300,1.945621337890625,4.7371907234191895,-10.25324535369873,0.5700899958610535
1760467548217390300,1.962390380859375,1.3100703954696655,-8.397610664367676,0.42293140292167664
1760467548234134800,1.979134765625,-2.008774518966675,-7.872386455535889,-1.2957134246826172
1760467548250901500,1.995901611328125,-1.1629117727279663,-7.453044414520264,-1.1886346340179443
1760467548267671000,2.012671142578125,-0.21296121180057526,-7.408178806304932,0.7381857633590698
1760467548284456400,2.02945654296875,-0.4743770956993103,-8.281558990478516,3.235694408416748
1760467548301219800,2.0462197265625,0.08015955984592438,-9.123832702636719,4.588835716247559
1760467548317984000,2.06298388671875,1.3507484197616577,-9.001200675964355,5.923432350158691
1760467548334746000,2.07974609375,0.9349954724311829,-8.804390907287598,5.956932067871094
1760467548351510500,2.096510498046875,-0.4163511395454407,-8.793622970581055,4.241278171539307
1760467548368244200,2.113244140625,-0.8877372145652771,-9.670592308044434,2.3359930515289307
1760467548385015000,2.13001513671875,-0.1740778535604477,-10.61695384979248,1.3573286533355713
1760467548401796900,2.146796875,0.8482556343078613,-8.564510345458984,4.8466620445251465
1760467548418541300,2.163541259765625,-0.9505487680435181,-5.571089267730713,7.5978102684021
1760467548435326000,2.180325927734375,-0.5335994362831116,-4.922036170959473,5.79481840133667
1760467548452077000,2.1970771484375,2.42093825340271,-5.416153907775879,2.9078776836395264
1760467548468832300,2.213832275390625,-0.18125630915164948,-6.484549522399902,2.462214469909668
1760467548485601000,2.23060107421875,-0.4462614357471466,-8.179863929748535,2.703291416168213
1760467548502357000,2.24735693359375,1.2197413444519043,-10.131211280822754,6.989434719085693
1760467548519118000,2.2641181640625,3.7734813690185547,-12.92782211303711,11.267203330993652
1760467548535916800,2.280916748046875,6.190232276916504,-14.143974304199219,10.820941925048828
1760467548552669200,2.297669189453125,-0.16091732680797577,-13.097712516784668,6.550950050354004
1760467548569455900,2.314455810546875,0.5204389095306396,-12.282358169555664,1.5427724123001099
1760467548586192000,2.33119189453125,3.2829527854919434,-10.881958961486816,0.6454638838768005
1760467548602958600,2.34795849609375,3.717249870300293,-9.775876998901367,2.5459632873535156
1760467548619731000,2.36473095703125,3.7531423568725586,-9.638289451599121,3.985246181488037
1760467548636477200,2.381477294921875,2.3300111293792725,-9.723833084106445,4.971687316894531
1760467548653224000,2.398223876953125,0.8715856671333313,-8.846863746643066,5.889933109283447
1760467548670013200,2.41501318359375,0.014356935396790504,-7.779664516448975,5.909673690795898
1760467548686744800,2.431744873046875,2.09431791305542,-7.244270324707031,5.91087007522583
1760467548703539200,2.448539306640625,2.1056840419769287,-7.033702373504639,5.407779216766357
1760467548720298200,2.46529833984375,1.3716856241226196,-6.663413047790527,4.329812526702881
1760467548737041000,2.482041015625,1.3094722032546997,-6.592226505279541,4.2933220863342285
1760467548753830000,2.498829833984375,-0.16869398951530457,-6.938587665557861,6.308078765869141
1760467548770595000,2.515594970703125,-2.008176326751709,-7.919644832611084,5.7170515060424805
1760467548787354000,2.53235400390625,-1.1778669357299805,-8.897112846374512,1.6510475873947144
1760467548804119600,2.54911962890625,1.2693923711776733,-10.110872268676758,-0.5407779216766357
1760467548820854500,2.5658544921875,3.2829527854919434,-10.597213745117188,-0.9158528447151184
1760467548837649200,2.582649169921875,2.551347255706787,-11.060224533081055,0.0687936544418335
1760467548854383900,2.5993837890625,-0.0005982056609354913,-11.650653839111328,-0.6017948985099792
1760467548871172600,2.616172607421875,-2.861217737197876,-8.850452423095703,0.47258245944976807
1760467548887894500,2.63289453125,-1.581655740737915,-7.995018482208252,1.8346967697143555
1760467548904676900,2.6496767578125,-1.0007981061935425,-7.537391185760498,2.7020950317382812
1760467548921462500,2.666462646484375,-0.18424734473228455,-9.268598556518555,2.8791637420654297
1760467548938194700,2.683194580078125,0.494716078042984,-10.464411735534668,4.125824451446533
1760467548954955300,2.699955322265625,-0.12861421704292297,-9.930811882019043,5.945566177368164
1760467548971756800,2.7167568359375,0.4019941985607147,-9.509077072143555,6.454041004180908
1760467548988476700,2.7334765625,0.5060819983482361,-9.33141040802002,5.373681545257568
1760467549005275100,2.750275146484375,-0.364905446767807,-9.500701904296875,3.7022948265075684
1760467549022013200,2.76701318359375,-0.6879364848136902,-8.361719131469727,3.0388846397399902
1760467549038801400,2.783801513671875,-0.2913261651992798,-5.552545070648193,4.398007869720459
1760467549055536000,2.8005361328125,1.4662020206451416,-3.8566319942474365,5.879165172576904
1760467549072307200,2.81730712890625,1.4135600328445435,-4.209573268890381,4.948955535888672
1760467549089090000,2.834090087890625,-1.2586246728897095,-5.425127029418945,3.404986619949341
1760467549105856800,2.850856689453125,-1.0600204467773438,-6.732206344604492,4.152743816375732
1760467549122622000,2.8676220703125,-0.039481572806835175,-7.631309509277344,6.768098831176758
1760467549139341000,2.884341064453125,4.95912504196167,-10.839486122131348,10.74855899810791
1760467549156124000,2.9011240234375,6.759724140167236,-13.755141258239746,11.97607707977295
1760467549172912000,2.917912109375,-1.800000786781311,-13.322638511657715,8.487939834594727
1760467549189630000,2.9346298828125,-1.4865410327911377,-12.16810131072998,3.9912281036376953
1760467549206401000,2.951401123046875,4.3411784172058105,-10.862218856811523,2.0129621028900146
1760467549223201800,2.968201904296875,4.847858905792236,-10.481760025024414,2.2241287231445312
1760467549239945000,2.984945068359375,3.9248273372650146,-10.314860343933105,3.524029493331909
1760467549256725500,3.0017255859375,3.129213809967041,-9.953543663024902,5.2354960441589355
1760467549273496000,3.01849609375,2.7080769538879395,-8.707481384277344,6.909275531768799
1760467549290237700,3.03523779296875,0.3756731450557709,-8.135597229003906,6.989434719085693
1760467549307018800,3.052018798828125,0.7716853022575378,-8.056035995483398,6.1710896492004395
1760467549323780000,3.068780029296875,1.2340983152389526,-7.241279602050781,6.367899417877197
1760467549340529400,3.085529296875,2.846860647201538,-6.519843578338623,6.180660724639893
1760467549357305600,3.1023056640625,1.0199406147003174,-6.651448726654053,6.582056999206543
1760467549374075400,3.119075439453125,-1.456630825996399,-7.238288402557373,5.959324836730957
1760467549390829600,3.13582958984375,-2.194218397140503,-8.50588607788086,3.1722846031188965
1760467549407597600,3.15259765625,-0.5353940725326538,-9.505488395690918,-0.5916253924369812
1760467549424338200,3.169338134765625,2.801995277404785,-10.336994171142578,-1.074975609779358
1760467549441090600,3.186090576171875,4.247260093688965,-9.349356651306152,-0.031106693670153618
1760467549457885700,3.2028857421875,1.9794625043869019,-9.990633010864258,0.07896314561367035
1760467549474655000,3.219655029296875,-1.1126625537872314,-9.988838195800781,0.035892341285943985
1760467549491401700,3.236401611328125,-1.4344971179962158,-8.38145923614502,2.4975085258483887
1760467549508176100,3.253176025390625,-1.3256237506866455,-7.529614448547363,4.433900356292725
1760467549524932600,3.2699326171875,-2.0614166259765625,-8.128418922424316,5.205585479736328
1760467549541703200,3.286703125,-1.3232308626174927,-9.278767585754395,6.348158359527588
1760467549558461000,3.3034609375,1.4368900060653687,-9.486345291137695,8.1553373336792
1760467549575237400,3.3202373046875,1.5194423198699951,-9.511469841003418,7.7832536697387695
1760467549591999500,3.33699951171875,-0.35832518339157104,-9.996614456176758,5.507679462432861
1760467549608760000,3.353760009765625,-0.11485548317432404,-10.211968421936035,3.961916208267212
1760467549625524700,3.370524658203125,0.31106695532798767,-10.115059852600098,4.676173686981201
1760467549642251300,3.387251220703125,0.44446679949760437,-8.82951545715332,6.694519519805908
1760467549659046700,3.404046630859375,0.5718846321105957,-6.918248653411865,6.854838848114014
1760467549675812000,3.42081201171875,-0.7405785918235779,-4.3998026847839355,6.273981094360352
1760467549692549000,3.437549072265625,-1.1940184831619263,-3.566502094268799,4.563112735748291
1760467549709304600,3.4543046875,-0.9601200819015503,-3.9260237216949463,2.1756739616394043
1760467549726076200,3.471076171875,-0.9888339638710022,-5.016552448272705,1.368694543838501
1760467549742838800,3.4878388671875,-0.7734799385070801,-6.233901023864746,4.057629108428955
1760467549759591200,3.504591064453125,0.16031911969184875,-7.740182876586914,7.530810832977295
1760467549776354800,3.521354736328125,6.058028697967529,-11.775080680847168,10.246665000915527
1760467549793141000,3.53814111328125,5.955137252807617,-13.387843132019043,10.417153358459473
1760467549809904400,3.554904296875,-2.748156785964966,-12.738191604614258,8.602795600891113
1760467549826662100,3.571662109375,1.4141582250595093,-12.21057415008545,6.713662147521973
1760467549843448300,3.5884482421875,4.058227062225342,-11.403594970703125,3.142374277114868
1760467549860192500,3.605192626953125,4.250251293182373,-10.898110389709473,3.630510091781616
1760467549876971300,3.62197119140625,4.044468402862549,-10.059426307678223,5.318048477172852
1760467549893736700,3.63873681640625,2.224726915359497,-9.232706069946289,6.964310169219971
1760467549910498600,3.65549853515625,2.0105693340301514,-8.58784008026123,7.6737823486328125
1760467549927261700,3.67226171875,1.6558332443237305,-7.9381890296936035,7.302894592285156
1760467549943983400,3.6889833984375,-0.08315058797597885,-6.792625427246094,6.623931407928467
1760467549960788200,3.705788330078125,1.1473584175109863,-5.657829284667969,6.279364585876465
1760467549977526000,3.722526123046875,0.8398807644844055,-4.878965377807617,7.222136974334717
1760467549994304000,3.739303955078125,0.9517452120780945,-4.948357105255127,6.39721155166626
1760467550011077600,3.75607763671875,-1.0372886657714844,-5.318646430969238,5.036891460418701
1760467550027841300,3.77284130859375,-2.0512471199035645,-6.665805816650391,2.1469600200653076
1760467550044575700,3.78957568359375,-1.3866406679153442,-8.49033260345459,0.9068797826766968
1760467550061371400,3.806371337890625,1.113858938217163,-9.379266738891602,0.7549355626106262
1760467550078105900,3.82310595703125,3.469592809677124,-9.982855796813965,0.363709032535553
1760467550094897400,3.8398974609375,2.283350944519043,-10.188638687133789,0.7621139883995056
1760467550111658500,3.856658447265625,-0.39840495586395264,-10.785648345947266,0.5156532526016235
1760467550128421600,3.873421630859375,-2.155933141708374,-9.134600639343262,1.8143577575683594
1760467550145181000,3.890180908203125,-1.740180253982544,-8.045866012573242,4.398007869720459
1760467550161927700,3.906927734375,-0.8123632669448853,-8.136195182800293,4.988437175750732
1760467550178714600,3.923714599609375,-0.31764721870422363,-8.957531929016113,5.188836097717285
1760467550195439400,3.940439453125,0.4049852192401886,-9.428318977355957,6.327819347381592
1760467550212230100,3.957230224609375,0.16450655460357666,-9.502496719360352,6.483353137969971
1760467550229003500,3.97400341796875,-0.6478567123413086,-9.625128746032715,6.099305152893066
1760467550245738800,3.99073876953125,-0.08434699475765228,-9.875777244567871,5.920441627502441
1760467550262528800,4.00752880859375,0.4259224236011505,-9.976874351501465,6.805785655975342
1760467550279264500,4.024264404296875,1.2011969089508057,-7.737790107727051,9.45882797241211
1760467550296029000,4.04102880859375,-0.12801600992679596,-4.595416069030762,8.876175880432129
1760467550312818700,4.057818603515625,-1.8203397989273071,-2.6291139125823975,6.615556240081787
1760467550329577700,4.07457763671875,-0.6705885529518127,-2.3395824432373047,4.060619831085205
1760467550346332400,4.09133251953125,0.7369893789291382,-3.401397466659546,2.5872395038604736
1760467550363079700,4.10807958984375,0.9080761671066284,-5.136792182922363,1.3334003686904907
1760467550379875600,4.12487548828125,1.164108157157898,-5.975476264953613,2.2408783435821533
1760467550396600300,4.141600341796875,2.1397817134857178,-7.803592681884766,5.900700569152832
1760467550413373000,4.158373046875,4.1760735511779785,-12.032906532287598,11.526824951171875
1760467550430161700,4.17516162109375,4.220340728759766,-12.609577178955078,13.178470611572266
1760467550446915800,4.191915771484375,-3.0311081409454346,-13.071392059326172,10.673185348510742
1760467550463685000,4.20868505859375,2.417947292327881,-12.607782363891602,7.417151927947998
1760467550480425700,4.22542578125,3.937389612197876,-11.969496726989746,4.66660213470459
1760467550497183000,4.242182861328125,4.265804767608643,-11.314461708068848,4.940580368041992
1760467550513977600,4.2589775390625,4.381856441497803,-10.53499984741211,4.963312149047852
1760467550530739700,4.27573974609375,3.1998021602630615,-9.090332984924316,6.058627128601074
1760467550547479800,4.292479736328125,1.0408778190612793,-7.3878397941589355,7.732406139373779
1760467550564271400,4.309271240234375,0.656829833984375,-6.57547664642334,7.728816986083984
1760467550581006000,4.326006103515625,1.6145570278167725,-6.176473617553711,7.331608772277832
1760467550597774800,4.34277490234375,0.8081758618354797,-5.493920803070068,7.200003147125244
1760467550614532600,4.35953271484375,1.3950155973434448,-5.362913608551025,7.430312633514404
1760467550631316200,4.376316162109375,-0.04007977992296219,-5.72841739654541,7.334599494934082
1760467550648052700,4.393052734375,-1.9028922319412231,-6.926024913787842,5.4418768882751465
1760467550664851700,4.409851806640625,-2.3946173191070557,-8.37547779083252,1.9950158596038818
1760467550681614600,4.426614501953125,0.4534398913383484,-10.137791633605957,-0.9684949517250061
1760467550698351000,4.44335107421875,2.9665019512176514,-10.04447078704834,-0.20338992774486542
1760467550715104500,4.4601044921875,3.001796007156372,-10.192826271057129,2.0793628692626953
1760467550731898000,4.476898193359375,1.042074203491211,-11.160124778747559,2.1134605407714844
1760467550748644400,4.493644287109375,-1.287936806678772,-10.110274314880371,1.109073281288147
1760467550765427000,4.510427001953125,-1.6031911373138428,-8.14397144317627,3.556332588195801
1760467550782145300,4.527145263671875,-2.0099709033966064,-7.051050186157227,4.4344987869262695
1760467550798930400,4.543930419921875,-1.4333007335662842,-7.826324462890625,5.447260856628418
1760467550815717000,4.560717041015625,0.6364908218383789,-8.36411190032959,6.784848690032959
1760467550832452000,4.5774521484375,1.7365909814834595,-9.340383529663086,7.9280195236206055
1760467550849221600,4.5942216796875,1.31365966796875,-9.034101486206055,8.041678428649902
1760467550865982200,4.610982177734375,0.851844847202301,-8.14636516571045,7.977072715759277
1760467550882742300,4.6277421875,0.20099709928035736,-7.819146156311035,7.3298139572143555
1760467550899542300,4.644542236328125,-1.2185449600219727,-7.701299667358398,6.049654006958008
1760467550916301800,4.6613017578125,-1.693520188331604,-5.411368370056152,6.665207386016846
1760467550933060400,4.678060302734375,-0.6885347366333008,-3.208775281906128,6.27278470993042
1760467550949827600,4.69482763671875,1.2418749332427979,-3.033500909805298,5.3353962898254395
1760467550966584800,4.711584716796875,1.2538390159606934,-3.3308091163635254,3.7950167655944824
1760467550983354600,4.728354736328125,0.50907301902771,-4.883750915527344,2.5734808444976807
1760467551000099600,4.745099609375,-0.6137589812278748,-5.49930477142334,1.674377679824829
1760467551016858400,4.7618583984375,-0.08614161610603333,-6.655037879943848,4.727021217346191
1760467551033641700,4.778641845703125,5.6446685791015625,-12.464811325073242,8.497511863708496
1760467551050392600,4.795392578125,7.985447406768799,-13.911273002624512,11.426924705505371
1760467551067138600,4.812138671875,-6.98704195022583,-13.805390357971191,10.50389289855957
1760467551083910400,4.828910400390625,0.8327022790908813,-12.860823631286621,7.5463643074035645
1760467551100647200,4.845647216796875,5.794219970703125,-11.803793907165527,6.2297139167785645
1760467551117458000,4.8624580078125,4.034897327423096,-11.465807914733887,5.535196781158447
1760467551134196500,4.879196533203125,3.7058839797973633,-11.135000228881836,5.357530117034912
1760467551150983700,4.895983642578125,3.6466617584228516,-10.264012336730957,5.711667537689209
1760467551167722000,4.912721923828125,2.899502754211426,-8.60877799987793,8.109275817871094
1760467551184505000,4.929505126953125,-0.5359922647476196,-6.081358909606934,9.302098274230957
1760467551201254000,4.94625390625,-0.24586252868175507,-4.72582483291626,9.05444049835205
1760467551218035200,4.96303515625,-0.4582255482673645,-4.018745422363281,8.526225090026855
1760467551234802700,4.979802734375,-0.49292147159576416,-4.184448719024658,8.23130989074707
1760467551251544000,4.9965439453125,-0.7250252366065979,-4.751547336578369,6.674778938293457
1760467551268327200,5.0133271484375,-2.5256242752075195,-5.7272210121154785,2.8013970851898193
1760467551285061600,5.0300615234375,0.6131607890129089,-7.761718273162842,-0.2638086974620819
1760467551301811000,5.04681103515625,3.384049415588379,-9.272188186645508,-1.1509476900100708
1760467551318642200,5.06364208984375,3.7986059188842773,-11.089536666870117,-0.6717849373817444
1760467551335380000,5.0803798828125,1.8233308792114258,-10.576874732971191,1.0863415002822876
1760467551352100000,5.09710009765625,0.11006984114646912,-11.44128131866455,1.9902302026748657
1760467551368908300,5.113908203125,-1.2185449600219727,-9.739984512329102,3.4618160724639893
1760467551385667300,5.130667236328125,-1.466800332069397,-8.57767105102539,5.636293888092041
1760467551402392800,5.147392822265625,-1.4811571836471558,-8.061419486999512,5.867799282073975
1760467551419181600,5.164181640625,-1.1318050622940063,-8.03210735321045,5.758327484130859
1760467551435956000,5.1809560546875,-0.49591249227523804,-8.766105651855469,5.738586902618408
1760467551452677000,5.197677001953125,0.3523431420326233,-8.571688652038574,6.2566328048706055
1760467551469463800,5.2144638671875,-0.15672987699508667,-8.69491958618164,6.812366008758545
1760467551486223000,5.23122314453125,-0.2512463629245758,-8.900702476501465,6.6831536293029785
1760467551502987300,5.2479873046875,-0.04426721855998039,-8.756534576416016,6.1944193840026855
1760467551519749000,5.2647490234375,-0.7058826684951782,-7.435696601867676,6.4115681648254395
1760467551536517600,5.281517578125,-1.1335997581481934,-4.909473896026611,6.596413612365723
1760467551553283600,5.29828369140625,-2.135594129562378,-3.0837502479553223,5.508875846862793
1760467551570063600,5.315063720703125,-1.1341979503631592,-2.3700907230377197,4.246063709259033
1760467551586807800,5.331807861328125,1.9746768474578857,-2.5405795574188232,4.01754903793335
1760467551603593200,5.34859326171875,2.362314224243164,-3.0388846397399902,4.1521453857421875
1760467551620355300,5.365355224609375,1.688734531402588,-5.162514686584473,4.570889472961426
1760467551637089800,5.38208984375,-0.5282155871391296,-7.447660446166992,6.005386829376221
1760467551653841700,5.398841552734375,0.9655039310455322,-14.666208267211914,8.414361000061035
1760467551670647800,5.415647705078125,3.699902057647705,-16.824533462524414,11.802597999572754
1760467551687387100,5.43238720703125,-1.0450652837753296,-15.819548606872559,11.361122131347656
1760467551704129000,5.44912890625,2.6805596351623535,-14.46162223815918,9.21117115020752
1760467551720937000,5.46593701171875,2.8348965644836426,-13.01396369934082,5.380859851837158
1760467551737687300,5.482687255859375,3.9194436073303223,-11.95334529876709,4.460221290588379
1760467551754444800,5.49944482421875,5.275575637817383,-10.777273178100586,3.9625144004821777
1760467551771225900,5.516225830078125,3.3948171138763428,-9.484550476074219,4.537988185882568
1760467551787977000,5.53297705078125,0.8153542876243591,-8.030312538146973,7.414759159088135
1760467551804714000,5.5497138671875,1.2382856607437134,-6.468397617340088,8.542975425720215
1760467551821515000,5.566514892578125,0.2225325107574463,-5.2354960441589355,8.789435386657715
1760467551838271500,5.583271484375,-0.7052844762802124,-4.2723846435546875,8.470592498779297
1760467551855040500,5.60004052734375,-1.1096714735031128,-4.334000110626221,8.082955360412598
1760467551871804000,5.616803955078125,-1.3615161180496216,-4.727619171142578,6.178267955780029
1760467551888571000,5.63357080078125,-2.7074787616729736,-4.479363918304443,2.6763720512390137
1760467551905328600,5.65032861328125,-1.3453645706176758,-5.194818019866943,0.6825526356697083
1760467551922093800,5.66709375,1.5224334001541138,-5.812166213989258,-0.05144568532705307
1760467551938844200,5.68384423828125,3.0963125228881836,-6.380461692810059,-0.5252245664596558
1760467551955616800,5.70061669921875,2.788236618041992,-8.408976554870605,-1.415354609489441
1760467551972386800,5.71738671875,0.7148557901382446,-10.49073314666748,-1.973480463027954
1760467551989126700,5.734126708984375,0.07657032459974289,-11.356934547424316,-0.25304099917411804
1760467552005878800,5.750878662109375,-0.1579262912273407,-9.989436149597168,5.362315654754639
1760467552022677800,5.767677734375,-2.854039192199707,-8.38684368133545,7.57507848739624
1760467552039414500,5.78441455078125,-2.659024238586426,-9.254241943359375,9.078369140625
1760467552056177200,5.80117724609375,-0.04127619042992592,-9.7938232421875,9.473783493041992
1760467552072966400,5.81796630859375,1.9471594095230103,-10.683355331420898,8.567501068115234
1760467552089701000,5.834701171875,1.0307083129882812,-10.0073823928833,8.132007598876953
1760467552106494700,5.85149462890625,1.7383856773376465,-8.811569213867188,8.8707914352417
1760467552123248400,5.868248291015625,0.8548358678817749,-8.86062240600586,7.395018577575684
1760467552140034300,5.885034423828125,-1.6103696823120117,-8.087141990661621,5.985047817230225
1760467552156783600,5.90178369140625,-2.8313074111938477,-6.358926296234131,6.8141608238220215
1760467552173521000,5.91852099609375,-2.2271196842193604,-4.809573650360107,6.201598167419434
1760467552190310400,5.935310302734375,-2.159522533416748,-3.617947816848755,3.8524444103240967
1760467552207064800,5.95206494140625,-1.7425731420516968,-2.5776681900024414,1.5672988891601562
1760467552223841800,5.968841796875,-0.5521438121795654,-1.9561325311660767,1.5744773149490356
1760467552240574700,5.98557470703125,0.529412031173706,-1.9411773681640625,2.5525436401367188
1760467552257336800,6.0023369140625,2.0279171466827393,-2.9760732650756836,3.559921979904175
1760467552274125800,6.019125732421875,4.40757942199707,-4.354339122772217,3.988237142562866
1760467552290889500,6.035889404296875,-2.843869686126709,-8.705686569213867,5.1427741050720215
1760467552307608600,6.052608642578125,4.016352653503418,-14.356935501098633,7.310073375701904
1760467552324414700,6.069414794921875,7.911269664764404,-15.462419509887695,14.448461532592773
1760467552341182200,6.08618212890625,-6.379863262176514,-13.969298362731934,20.35454559326172
1760467552357929200,6.10292919921875,3.7148571014404297,-13.881361961364746,14.737993240356445
1760467552374720300,6.11972021484375,6.8865437507629395,-14.108680725097656,7.063612461090088
1760467552391469300,6.13646923828125,3.3003005981445312,-11.699108123779297,4.922634601593018
1760467552408233200,6.153233154296875,3.0185458660125732,-9.195018768310547,5.119443893432617
1760467552424986600,6.169986572265625,3.644867181777954,-8.73200798034668,5.303691387176514
1760467552441765600,6.186765625,1.7832510471343994,-8.992825508117676,5.531607627868652
1760467552458521900,6.20352197265625,1.4943177700042725,-8.00518798828125,5.787639617919922
1760467552475286500,6.22028662109375,1.9369899034500122,-6.727420806884766,6.7447686195373535
1760467552492051500,6.237051513671875,1.0061819553375244,-5.8821563720703125,8.063812255859375
1760467552508785200,6.25378515625,-0.7166503667831421,-4.971088886260986,8.981459617614746
1760467552525556000,6.270555908203125,-0.14895321428775787,-4.719244480133057,8.452646255493164
1760467552542311000,6.287310791015625,-0.2476571500301361,-4.849055290222168,7.125825881958008
1760467552559106600,6.3041064453125,-0.9314061999320984,-4.59003210067749,4.840082168579102
1760467552575863000,6.320863037109375,0.3200400173664093,-4.884947299957275,2.423929452896118
1760467552592604200,6.337604248046875,1.6558332443237305,-5.5968122482299805,2.022533416748047
1760467552609389000,6.35438916015625,1.5744773149490356,-7.025925636291504,1.9441684484481812
1760467552626131200,6.371131103515625,1.6151553392410278,-9.54078197479248,1.9674984216690063
1760467552642919400,6.38791943359375,2.853440999984741,-12.41575813293457,2.4951157569885254
1760467552659636500,6.404636474609375,1.2951152324676514,-15.262619018554688,5.183452129364014
1760467552676446200,6.4214462890625,-1.007378339767456,-15.592230796813965,8.848658561706543
1760467552693206300,6.438206298828125,1.41834557056427,-15.902101516723633,10.543972969055176
1760467552709980700,6.454980712890625,0.2799602448940277,-15.080764770507812,11.952747344970703
1760467552726732800,6.47173291015625,-1.1904292106628418,-13.3770751953125,9.623334884643555
1760467552743474200,6.48847412109375,-0.5252245664596558,-12.64307689666748,8.706883430480957
1760467552760275000,6.50527490234375,0.7495517134666443,-11.058429718017578,7.65583610534668
1760467552777025800,6.52202587890625,0.7004988193511963,-9.317651748657227,7.261618614196777
1760467552793787100,6.538787109375,-0.24466611444950104,-7.568498134613037,7.014559745788574
1760467552810529500,6.555529541015625,-2.046461582183838,-6.150152206420898,6.306283950805664
1760467552827319600,6.572319580078125,-2.4675984382629395,-5.202594757080078,6.174678802490234
1760467552844053800,6.5890537109375,-1.2179467678070068,-4.5391845703125,6.276373863220215
1760467552860825600,6.60582568359375,-0.040677983313798904,-4.423730850219727,6.63769006729126
1760467552877607700,6.622607666015625,0.4217349886894226,-4.481756687164307,6.524031162261963
1760467552894349300,6.639349365234375,0.8835497498512268,-4.500301361083984,6.519245147705078
1760467552911107300,6.656107421875,1.5092729330062866,-4.190430641174316,7.6737823486328125
1760467552927869400,6.672869384765625,1.1186445951461792,-3.604189157485962,9.77527904510498
1760467552944644400,6.689644287109375,-0.7339983582496643,-3.4677982330322266,11.651251792907715
1760467552961421600,6.706421630859375,-1.1371889114379883,-4.041477680206299,13.563714981079102
1760467552978157000,6.723156982421875,0.8578268885612488,-5.076373100280762,16.125232696533203
1760467552994924000,6.739924072265625,3.0340991020202637,-5.32821798324585,17.013566970825195
1760467553011696000,6.756696044921875,3.290131092071533,-4.90109920501709,16.741384506225586
1760467553028452000,6.7734521484375,2.9419753551483154,-5.140381336212158,15.698711395263672
1760467553045201700,6.79020166015625,4.119842529296875,-5.4418768882751465,14.213964462280273
1760467553061971000,6.806970947265625,6.391229152679443,-6.101099491119385,13.569697380065918
1760467553078732300,6.823732177734375,6.656832695007324,-5.842076301574707,12.814163208007812
1760467553095511800,6.84051171875,5.322235584259033,-5.191826820373535,13.01516056060791
1760467553112281600,6.857281494140625,5.367101192474365,-4.604987144470215,13.093525886535645
1760467553129056000,6.874055908203125,6.437889099121094,-4.507479667663574,12.356535911560059
1760467553145818000,6.890818115234375,7.4877400398254395,-4.518247127532959,10.683953285217285
1760467553162583300,6.907583251953125,9.004789352416992,-4.721039295196533,9.055039405822754
1760467553179316700,6.924316650390625,9.847063064575195,-5.7134623527526855,7.232306480407715
1760467553196085500,6.94108544921875,8.880363464355469,-5.726024627685547,5.638088226318359
1760467553212846800,6.957846923828125,9.08135986328125,-4.762315273284912,3.920639991760254
1760467553229635600,6.974635498046875,8.839086532592773,-3.778865098953247,3.0526435375213623
1760467553246399000,6.99139892578125,7.982456207275391,-3.562314748764038,2.65423846244812
1760467553263137800,7.0081376953125,8.082356452941895,-3.3553354740142822,2.5094728469848633
1760467553279928000,7.024927978515625,7.682755470275879,-2.475374937057495,1.7174484729766846
1760467553296708600,7.04170849609375,6.942774772644043,-2.3706889152526855,0.9511470198631287
1760467553313454600,7.05845458984375,6.330810546875,-1.673181176185608,1.201795220375061
1760467553330210800,7.0752109375,6.150152206420898,-0.9445667266845703,1.6821542978286743
1760467553346971000,7.091970947265625,5.342574596405029,-0.0077766734175384045,1.3645070791244507
1760467553363742200,7.1087421875,5.145166873931885,1.0648061037063599,1.1324033737182617
1760467553380505300,7.12550537109375,5.4759745597839355,1.4943177700042725,1.3369896411895752
1760467553397243400,7.142243408203125,6.413960933685303,0.9732806086540222,1.3651052713394165
1760467553414003200,7.159003173828125,7.561319351196289,0.5904290080070496,1.490728497505188
1760467553430773500,7.1757734375,8.306085586547852,0.7160521745681763,0.906281590461731
1760467553447559000,7.192558837890625,7.733004570007324,0.8554341197013855,-0.013160524889826775
1760467553464285400,7.209285400390625,6.235097408294678,1.5541383028030396,0.3475574851036072
1760467553481085000,7.2260849609375,6.3601226806640625,2.5351955890655518,0.8883354067802429
1760467553497823200,7.2428232421875,7.8454670906066895,2.562114953994751,0.2225325107574463
1760467553514592000,7.259592041015625,8.264211654663086,1.4871392250061035,-0.04785645380616188
1760467553531375000,7.276375,8.052446365356445,0.7322037220001221,-0.5706881880760193
1760467553548110600,7.293110595703125,7.5667033195495605,1.181456208229065,-1.2442678213119507
1760467553564905000,7.309905029296875,8.001599311828613,2.5399811267852783,-0.6622136831283569
1760467553581656000,7.326656005859375,8.70508861541748,2.8564319610595703,0.06819544732570648
1760467553598419500,7.34341943359375,9.393025398254395,2.6081767082214355,0.40737804770469666
1760467553615167200,7.360167236328125,9.172286987304688,2.3294129371643066,-0.4366901218891144
1760467553631929000,7.37692919921875,8.25404167175293,2.1990039348602295,-1.022931694984436
1760467553648706000,7.3937060546875,8.038089752197266,2.6123640537261963,-0.8404789566993713
1760467553665481500,7.4104814453125,8.708678245544434,2.923431158065796,-0.2805584669113159
1760467553682220000,7.427219970703125,9.735198974609375,3.359523057937622,0.004187439568340778
1760467553698982700,7.443982666015625,10.124032974243164,3.2380871772766113,-0.47796630859375
1760467553715772000,7.46077197265625,9.278169631958008,2.7397818565368652,-0.9978070259094238
1760467553732529400,7.477529296875,8.49571704864502,2.771486759185791,-1.2329018115997314
1760467553749304600,7.4943046875,8.944371223449707,2.943770170211792,-0.7172485589981079
1760467553766034000,7.511033935546875,9.864411354064941,2.5435705184936523,-0.7950153350830078
1760467553782827800,7.527827880859375,9.647262573242188,3.284747362136841,-1.334596872329712
1760467553799588000,7.544588134765625,9.90149974822998,3.002394199371338,-1.8759729862213135
1760467553816352000,7.56135205078125,9.778867721557617,2.4227328300476074,-1.7994025945663452
1760467553833115000,7.578114990234375,7.88494873046875,3.146561861038208,-2.3096721172332764
1760467553849875700,7.594875732421875,8.13380241394043,3.2482566833496094,-2.2845473289489746
