time,seconds_elapsed,z,y,x
1764544901351246300,0.114246337890625,-0.12256336212158203,-0.1314387321472168,0.038974881172180176
1764544901368370700,0.13137060546875,-0.0653533935546875,0.07910966873168945,0.045951277017593384
1764544901385493000,0.148492919921875,-0.26779842376708984,0.1968526840209961,0.014755845069885254
1764544901402611000,0.16561083984375,-0.2009906768798828,0.2893543243408203,-0.0571674108505249
1764544901419702500,0.18270263671875,0.27099037170410156,0.2866692543029785,-0.13742855191230774
1764544901436788500,0.19978857421875,1.0429325103759766,0.2645840644836426,0.10914087295532227
1764544901453879800,0.2168798828125,1.6154050827026367,0.3605661392211914,-0.0273725688457489
1764544901470975700,0.233975830078125,0.7797145843505859,0.38627195358276367,0.4082111716270447
1764544901488093000,0.251093017578125,-0.21242427825927734,0.4247145652770996,0.38313403725624084
1764544901505197300,0.268197265625,-0.7636299133300781,0.7322463989257812,0.2196010947227478
1764544901522301400,0.285301513671875,-0.2888956069946289,0.8344178199768066,-0.055613160133361816
1764544901539388700,0.302388671875,0.0901336669921875,0.6174860000610352,0.11453741788864136
1764544901556494800,0.319494873046875,-0.061470985412597656,0.2331700325012207,0.42152467370033264
1764544901573579500,0.33657958984375,-0.04247093200683594,0.054438114166259766,0.39430540800094604
1764544901590688000,0.35368798828125,0.14884185791015625,0.5436396598815918,0.321441113948822
1764544901607783200,0.370783203125,-0.2756032943725586,0.5511140823364258,-0.08369255065917969
1764544901624880000,0.387880126953125,-0.2775840759277344,0.5742874145507812,0.0006502270698547363
1764544901641970700,0.404970703125,-0.5574531555175781,0.45493364334106445,0.3081386089324951
1764544901659054800,0.422054931640625,-0.893918514251709,0.09141254425048828,0.5675147771835327
1764544901676169500,0.43916943359375,0.1485004425048828,-0.16536712646484375,1.339099407196045
1764544901693258500,0.456258544921875,0.7636699676513672,-0.5462737083435059,1.0690481662750244
1764544901710361000,0.473361083984375,0.7286911010742188,-0.4522120952606201,1.3344374895095825
1764544901727447000,0.490447021484375,-0.05495166778564453,-0.6710598468780518,1.2934690713882446
1764544901744553700,0.5075537109375,-0.5064659118652344,-0.47797632217407227,0.35170960426330566
1764544901761653200,0.5246533203125,-0.8387689590454102,-0.1230921745300293,-0.13311690092086792
1764544901778721800,0.5417216796875,-0.11402606964111328,0.1474752426147461,-0.8715478181838989
1764544901795839700,0.55883984375,0.1630992889404297,0.4922938346862793,-1.4601466655731201
1764544901812934000,0.575933837890625,0.38091278076171875,0.8389544486999512,-1.8473795652389526
1764544901830024200,0.593024169921875,0.6456708908081055,1.1984553337097168,-1.8763229846954346
1764544901847127600,0.61012744140625,-0.4781455993652344,1.0720901489257812,-1.1757001876831055
1764544901864229600,0.627229736328125,-1.0238656997680664,-0.1577138900756836,0.1771411895751953
1764544901881316400,0.64431640625,-0.736785888671875,-0.34522199630737305,0.14771747589111328
1764544901898422300,0.66142236328125,0.3907957077026367,0.06449198722839355,-0.2372967004776001
1764544901915510800,0.6785107421875,1.8505125045776367,0.045403242111206055,0.07912731170654297
1764544901932596200,0.69559619140625,1.7874927520751953,0.21294283866882324,-0.22745931148529053
1764544901949712000,0.7127119140625,0.9396963119506836,0.3973581790924072,-0.6644666194915771
1764544901966801200,0.72980126953125,0.6802196502685547,-0.3596153259277344,0.5271604061126709
1764544901983897900,0.74689794921875,0.7916011810302734,-1.1265625953674316,0.778400182723999
1764544902001000000,0.764,1.0587158203125,-1.5652039051055908,1.288814663887024
1764544902018092000,0.781092041015625,1.0920686721801758,-1.961571216583252,1.765763521194458
1764544902035180500,0.7981806640625,0.6981439590454102,-2.5173959732055664,2.0747056007385254
1764544902052289800,0.815289794921875,-0.32615089416503906,-2.842454195022583,2.2790908813476562
1764544902069380000,0.832380126953125,-1.1562070846557617,-3.0218446254730225,2.4971871376037598
1764544902086475800,0.849475830078125,-1.3078927993774414,-1.7246496677398682,1.4988964796066284
1764544902103574800,0.86657470703125,-1.1548185348510742,-1.0016942024230957,1.0842664241790771
1764544902120666000,0.883666015625,-0.9683074951171875,-0.8695123195648193,1.4443708658218384
1764544902137763000,0.90076318359375,-0.04582023620605469,-0.7716917991638184,0.8967394828796387
1764544902154856000,0.91785595703125,0.6047573089599609,-0.853132963180542,-0.5284556150436401
1764544902171964200,0.934964111328125,1.5198965072631836,-1.0744059085845947,-0.7485597729682922
1764544902189060600,0.952060546875,1.1428756713867188,-0.29506731033325195,0.08080482482910156
1764544902206160100,0.96916015625,0.4901313781738281,-0.1404116153717041,0.2033247947692871
1764544902223271000,0.98627099609375,0.5261716842651367,0.10581088066101074,0.5494904518127441
1764544902240381000,1.003380859375,0.18587017059326172,0.13375520706176758,0.8573015928268433
1764544902257346600,1.0203466796875,0.02387714385986328,-0.12493586540222168,0.2556263208389282
1764544902274126800,1.037126953125,0.035286903381347656,0.08364605903625488,0.27530890703201294
1764544902290870000,1.0538701171875,-0.11915111541748047,0.28225088119506836,0.6470143795013428
1764544902307650600,1.070650634765625,-0.18158817291259766,-0.16627192497253418,0.682174801826477
1764544902324417500,1.08741748046875,0.2728414535522461,-0.4585437774658203,1.3571749925613403
1764544902341148000,1.10414794921875,-0.22960662841796875,-0.6293423175811768,1.1212564706802368
1764544902357916000,1.120916015625,-0.3234996795654297,-0.7693321704864502,1.178433895111084
1764544902374699800,1.13769970703125,-0.31893444061279297,-1.3162909746170044,1.5626834630966187
1764544902391432200,1.15443212890625,-0.4421367645263672,-1.398275375366211,1.599700927734375
1764544902408191700,1.171191650390625,-0.2170886993408203,-1.0713539123535156,1.2043628692626953
1764544902424981000,1.18798095703125,-0.26472949981689453,-0.7536394596099854,0.8472135066986084
1764544902441717200,1.20471728515625,-0.5686759948730469,1.1475279331207275,1.076120376586914
1764544902458478300,1.221478271484375,-1.6945114135742188,3.707611322402954,-4.010791778564453
1764544902475239000,1.238239013671875,-1.1651687622070312,3.7119674682617188,-0.7043607234954834
1764544902492003800,1.25500390625,0.059700965881347656,-0.24131512641906738,0.07747220993041992
1764544902508790800,1.271790771484375,1.0381221771240234,0.5246129035949707,0.2111680507659912
1764544902525544700,1.288544677734375,-0.11916542053222656,0.49803996086120605,0.35068821907043457
1764544902542298000,1.305298095703125,-0.6813974380493164,1.2035927772521973,-0.3340655565261841
1764544902559073000,1.322072998046875,-0.3608369827270508,1.8910670280456543,-1.3198368549346924
1764544902575828500,1.338828369140625,0.5028963088989258,0.2962942123413086,-0.04714679718017578
1764544902592596200,1.35559619140625,1.1155776977539062,0.19311046600341797,0.07330489158630371
1764544902609328000,1.372328125,-0.013224601745605469,0.7331552505493164,-0.19376754760742188
1764544902626115600,1.389115478515625,-1.7712974548339844,1.2820839881896973,-0.8281927108764648
1764544902642873300,1.405873291015625,-2.067023277282715,1.2391514778137207,-0.7903859615325928
1764544902659640300,1.422640380859375,-0.8622646331787109,0.7511887550354004,-0.5132932662963867
1764544902676373200,1.439373291015625,-0.28916072845458984,0.7153511047363281,-0.49694228172302246
1764544902693134600,1.456134521484375,-0.24696826934814453,0.7478199005126953,-0.7509934902191162
1764544902709921500,1.472921630859375,-0.8511695861816406,0.8609380722045898,-0.7678670883178711
1764544902726654000,1.489654052734375,0.7693700790405273,1.0905418395996094,-0.10974502563476562
1764544902743418000,1.506418212890625,2.5952444076538086,0.722292423248291,0.7560765743255615
1764544902760207600,1.52320751953125,1.2390623092651367,0.11184310913085938,-0.4610474109649658
1764544902776963000,1.539963134765625,0.3589963912963867,-0.6412582397460938,0.04726266860961914
1764544902793708300,1.556708251953125,-0.3049163818359375,-1.4109222888946533,-0.017189502716064453
1764544902810462500,1.57346240234375,-0.7172574996948242,-1.9340434074401855,0.15614581108093262
1764544902827249400,1.59024951171875,1.3042888641357422,-1.785240650177002,-0.851851224899292
1764544902843979500,1.6069794921875,2.03749942779541,-2.390026807785034,-0.3901848793029785
1764544902860776200,1.623776123046875,1.1793618202209473,-2.3030858039855957,1.9238109588623047
1764544902877491200,1.6404912109375,0.7848520278930664,-2.1336612701416016,2.316150188446045
1764544902894274300,1.6572744140625,0.018930435180664062,-2.591625452041626,0.29618406295776367
1764544902911052800,1.674052734375,-0.4722933769226074,-3.690654754638672,-1.9839401245117188
1764544902927815200,1.690815185546875,-0.8024539947509766,-4.197085857391357,-3.2675423622131348
1764544902944555000,1.707554931640625,-2.150838851928711,-3.165431499481201,-3.5526022911071777
1764544902961315600,1.724315673828125,-1.4487252235412598,-2.356942653656006,-2.873419761657715
1764544902978101000,1.74110107421875,-0.5870399475097656,-2.0496327877044678,-1.9110784530639648
1764544902994832100,1.75783203125,1.2014718055725098,-2.7453231811523438,-2.300886631011963
1764544903011609300,1.774609375,1.0357303619384766,-2.7245194911956787,-2.5116891860961914
1764544903028348200,1.79134814453125,-0.5592327117919922,-1.837685465812683,-3.0305938720703125
1764544903045121500,1.80812158203125,-0.6057677268981934,-0.5069694519042969,-2.622222900390625
1764544903061905400,1.824905517578125,1.1790590286254883,0.10646581649780273,-2.4476428031921387
1764544903078666500,1.84166650390625,2.22255802154541,-0.2267392873764038,-2.8273181915283203
1764544903095403300,1.8584033203125,1.1433005332946777,-0.6728779077529907,-2.589522361755371
1764544903112178400,1.875178466796875,-0.9017133712768555,-0.10782873630523682,-2.0349936485290527
1764544903128956000,1.891955810546875,-1.7306365966796875,1.214582085609436,-0.16489267349243164
1764544903145680000,1.908679931640625,-1.1964631080627441,3.566878318786621,-0.004933357238769531
1764544903162475300,1.925475341796875,0.10792922973632812,4.449803829193115,-0.12950420379638672
1764544903179233800,1.94223388671875,2.885868549346924,3.6304285526275635,1.506993293762207
1764544903195972600,1.95897265625,5.121492385864258,3.946110963821411,4.006982803344727
1764544903212729900,1.975729736328125,4.954287052154541,5.166319847106934,6.194998741149902
1764544903229520600,1.992520751953125,4.046026706695557,6.160571098327637,7.331510543823242
1764544903246259000,2.009259033203125,4.107807159423828,6.606991291046143,7.364309310913086
1764544903263039500,2.02603955078125,5.162048816680908,5.704468727111816,6.4452409744262695
1764544903279800300,2.04280029296875,5.588798999786377,4.3018903732299805,5.844903945922852
1764544903296533000,2.059532958984375,4.39037561416626,3.205554246902466,5.619892597198486
1764544903313320700,2.07632080078125,2.7722277641296387,2.4315366744995117,4.6058173179626465
1764544903330086000,2.0930859375,1.295849323272705,1.5728437900543213,2.608949661254883
1764544903346817000,2.109817138671875,-0.29320192337036133,0.5591638684272766,1.4355273246765137
1764544903363608000,2.126608154296875,-0.9745197296142578,-0.031551361083984375,0.8146166801452637
1764544903380363000,2.143363037109375,-1.189924716949463,-0.817139744758606,0.460874080657959
1764544903397102800,2.160102783203125,-1.1914167404174805,-1.2293537855148315,0.36362504959106445
1764544903413887000,2.176886962890625,0.24016380310058594,-1.346758484840393,-0.1256427764892578
1764544903430654500,2.193654541015625,0.7942113876342773,-2.202726364135742,-0.7895922660827637
1764544903447386000,2.21038623046875,0.045477867126464844,-2.1792750358581543,-1.8440711498260498
1764544903464167000,2.2271669921875,-1.8946704864501953,-1.1021010875701904,-2.1450157165527344
1764544903480905700,2.24390576171875,-1.831639289855957,-1.2056331634521484,-1.5992732048034668
1764544903497668900,2.2606689453125,-0.8542160987854004,-1.0925400257110596,-0.8946013450622559
1764544903514456000,2.2774560546875,-0.1403961181640625,-1.2719883918762207,-0.7954084873199463
1764544903531191000,2.29419091796875,0.3212919235229492,-1.8193551301956177,-0.9575755596160889
1764544903547953400,2.310953369140625,0.5625419616699219,-2.1918601989746094,-1.2403241395950317
1764544903564739800,2.32773974609375,0.3557872772216797,-2.3499226570129395,-1.39609956741333
1764544903581493200,2.3444931640625,0.0383453369140625,-2.22694993019104,-1.6804808378219604
1764544903598237000,2.36123681640625,-0.3323974609375,-2.3820292949676514,-1.5301693677902222
1764544903615018200,2.378018310546875,-1.1865439414978027,-1.9384803771972656,-1.519515037536621
1764544903631763200,2.39476318359375,-0.7209744453430176,-2.10152268409729,-0.6673548221588135
1764544903648533500,2.411533447265625,-0.7985620498657227,-1.4598119258880615,-0.08945059776306152
1764544903665306600,2.428306640625,-1.7736220359802246,-1.036733627319336,0.06080293655395508
1764544903682029800,2.44502978515625,-3.1311120986938477,-0.5737833976745605,-0.38498640060424805
1764544903698803700,2.4618037109375,-1.9707660675048828,-1.3730411529541016,-0.8281116485595703
1764544903715590100,2.478590087890625,-0.07635307312011719,-2.0299086570739746,-0.0011718273162841797
1764544903732350200,2.49535009765625,0.7730503082275391,-1.1379520893096924,-0.8268580436706543
1764544903749088500,2.512088623046875,-0.05932140350341797,-0.6961054801940918,-1.298783540725708
1764544903765870000,2.5288701171875,-0.6646242141723633,-0.21322345733642578,-1.1603220701217651
1764544903782637000,2.545636962890625,-0.07601451873779297,-0.24207663536071777,-0.7051815986633301
1764544903799371300,2.562371337890625,-0.039569854736328125,-0.05289101600646973,-0.670865535736084
1764544903816128500,2.57912841796875,-1.722900390625,0.4178507328033447,-0.07297372817993164
1764544903832921600,2.595921630859375,-2.846245765686035,0.928534746170044,0.6286721229553223
1764544903849654300,2.612654296875,-3.631676197052002,1.195122480392456,0.34154558181762695
1764544903866440200,2.629440185546875,-3.391782760620117,0.5579140186309814,0.5108861923217773
1764544903883200800,2.64620068359375,-3.666612148284912,-0.5327103137969971,-0.5221424102783203
1764544903899935200,2.662935302734375,-2.640594959259033,-1.523844838142395,-1.8423588275909424
1764544903916701400,2.679701416015625,-2.3192529678344727,-2.2947640419006348,-2.732255220413208
1764544903933484800,2.69648486328125,-2.250380516052246,-3.00569486618042,-3.403870105743408
1764544903950219500,2.713219482421875,-1.7441558837890625,-3.9454057216644287,-3.6011459827423096
1764544903967005400,2.73000537109375,-2.0006704330444336,-3.4846689701080322,-3.2235043048858643
1764544903983771600,2.746771728515625,-1.2929329872131348,-4.076423645019531,-3.8373122215270996
1764544904000503600,2.763503662109375,-0.8258261680603027,-4.298012733459473,-3.336613655090332
1764544904017291000,2.780291015625,-1.2749691009521484,-4.093525409698486,-1.6931500434875488
1764544904034047500,2.797047607421875,-2.567812442779541,-2.861461639404297,-0.4724922180175781
1764544904050790400,2.813790283203125,-3.8464977741241455,-1.3934614658355713,0.5119810104370117
1764544904067571000,2.830571044921875,-3.3575944900512695,-0.393669068813324,1.3908843994140625
1764544904084312800,2.847312744140625,-3.9457590579986572,1.2365832328796387,2.5598983764648438
1764544904101070600,2.864070556640625,-4.1778082847595215,1.307877779006958,2.9704999923706055
1764544904117854700,2.880854736328125,-3.432589292526245,1.719731092453003,2.936293601989746
1764544904134586600,2.897586669921875,-2.094074249267578,1.6448326110839844,3.405674934387207
1764544904151354400,2.914354248046875,-0.9086915254592896,1.7224726676940918,4.388562202453613
1764544904168141300,2.931141357421875,0.16516685485839844,1.0345299243927002,5.320547103881836
1764544904184899000,2.947899169921875,1.79579496383667,1.020434856414795,6.734635353088379
1764544904201641000,2.964640869140625,3.822654962539673,0.6419830322265625,9.318472862243652
1764544904218424000,2.981424072265625,2.3606083393096924,0.28074216842651367,11.172416687011719
1764544904235185000,2.998184814453125,-5.967524528503418,3.1437039375305176,16.01814079284668
1764544904251920000,3.014919921875,-6.185052871704102,-1.2184295654296875,10.77907943725586
1764544904268707800,3.031707763671875,-2.7755801677703857,-3.2309694290161133,8.03348159790039
1764544904285433900,3.048433837890625,2.329089641571045,-3.7230024337768555,7.632035732269287
1764544904302208800,3.065208740234375,5.8299150466918945,-4.0042901039123535,5.869648456573486
1764544904318963200,3.081963134765625,6.328142166137695,-3.6266632080078125,3.9033889770507812
1764544904335722200,3.09872216796875,6.061440944671631,-1.321516513824463,5.573769569396973
1764544904352490800,3.11549072265625,-2.845028877258301,-0.39604854583740234,2.752554416656494
1764544904369275400,3.132275390625,-5.899789810180664,-0.7756252288818359,-2.272519588470459
1764544904386036000,3.149035888671875,-10.719204902648926,-2.3247432708740234,-9.029277801513672
1764544904402773800,3.165773681640625,-6.0338239669799805,-0.4380836486816406,-11.908182144165039
1764544904419558400,3.182558349609375,-4.806352138519287,0.7435719966888428,-10.828859329223633
1764544904436290300,3.199290283203125,-3.354762315750122,2.519955635070801,-6.282896995544434
1764544904469816000,3.232816162109375,0.5710334777832031,4.718937873840332,-2.1903076171875
1764544904486578000,3.249577880859375,1.7066941261291504,5.397425651550293,-1.6622653007507324
1764544904503347200,3.26634716796875,0.8477473258972168,5.875469207763672,-1.4471893310546875
1764544904520099600,3.283099609375,1.5094528198242188,5.8271307945251465,2.8047537803649902
1764544904553621000,3.31662109375,0.722933292388916,2.5412678718566895,7.494781970977783
1764544904570386000,3.333385986328125,2.404538631439209,2.872676372528076,9.602538108825684
1764544904587131400,3.35013134765625,3.1784725189208984,0.0744786262512207,6.012138843536377
1764544904603900200,3.366900146484375,2.496664524078369,-2.2721567153930664,2.9333763122558594
1764544904637450200,3.4004501953125,0.6285209655761719,-5.1722187995910645,-3.856954574584961
1764544904654207500,3.41720751953125,-0.701873779296875,-5.289484024047852,-5.175947189331055
1764544904696088800,3.4590888671875,-0.5780148506164551,-3.129570484161377,0.4741835594177246
1764544904712848000,3.475847900390625,-0.2551536560058594,-3.0148262977600098,1.5301132202148438
1764544904729602300,3.492602294921875,1.618217945098877,-2.6029715538024902,3.2400646209716797
1764544904746386000,3.509385986328125,10.070661544799805,-2.5625157356262207,4.01696252822876
1764544904763143000,3.526142822265625,-1.4747157096862793,0.4128870964050293,4.086091041564941
1764544904779924700,3.5429248046875,-2.5314383506774902,2.5761125087738037,1.8833699226379395
1764544904796656000,3.55965625,-1.203535556793213,3.256253480911255,-1.8074021339416504
1764544904813436400,3.5764365234375,-2.803586006164551,3.4780097007751465,-5.496297359466553
1764544904830195700,3.59319580078125,-5.097949981689453,4.482826232910156,-7.204797744750977
1764544904846971600,3.6099716796875,-3.903334617614746,4.200425148010254,-7.802008152008057
1764544904863726300,3.626726318359375,-3.323622941970825,4.792214870452881,-6.117076873779297
1764544904880488000,3.643488037109375,-4.30873966217041,4.69699239730835,-4.941755294799805
1764544904897232400,3.660232421875,-4.779721260070801,4.211907386779785,-1.8277101516723633
1764544904913984000,3.67698388671875,-5.396346092224121,2.6710264682769775,-2.685232400894165
1764544904930741200,3.6937412109375,-3.7095141410827637,0.1488046646118164,-8.523712158203125
1764544904947536400,3.710536376953125,4.0074639320373535,0.9066238403320312,5.461235523223877
1764544904964286700,3.72728662109375,4.741009712219238,2.0930747985839844,14.887563705444336
1764544904981060000,3.74406005859375,1.2060346603393555,-0.9402122497558594,12.374935150146484
1764544904997815600,3.760815673828125,-2.4499447345733643,-1.0686650276184082,4.842259883880615
1764544905014577200,3.7775771484375,-3.212545871734619,-1.6340312957763672,1.9041972160339355
1764544905031337500,3.79433740234375,-1.3702034950256348,-0.8026456832885742,2.861471176147461
1764544905048098800,3.811098876953125,-0.528564453125,0.16277503967285156,3.8526835441589355
1764544905064860200,3.827860107421875,-7.074259281158447,2.2852349281311035,4.3159990310668945
1764544905081621000,3.84462109375,2.1539881229400635,3.894374370574951,-5.513825416564941
1764544905098382000,3.861382080078125,6.08987283706665,-1.1937131881713867,0.020084381103515625
1764544905115116500,3.878116455078125,1.491787075996399,0.09332942962646484,2.313568115234375
1764544905131904000,3.894904052734375,-0.3450247049331665,-2.302478790283203,3.3951945304870605
1764544905148627700,3.911627685546875,-0.40592408180236816,-3.443209648132324,4.963059902191162
1764544905165426200,3.92842626953125,0.1325819492340088,-3.259603500366211,4.944921493530273
1764544905182181000,3.94518115234375,1.5516912937164307,-4.751335144042969,2.7980291843414307
1764544905198955300,3.961955322265625,-4.236600875854492,-2.9778223037719727,-0.9594690799713135
1764544905215715800,3.9787158203125,3.6644701957702637,-7.549976348876953,2.6945173740386963
1764544905232466000,3.9954658203125,-0.23311233520507812,-1.0371456146240234,1.8432180881500244
1764544905249232600,4.012232666015625,-0.02392435073852539,-0.4709157943725586,-0.3518941402435303
1764544905265985800,4.02898583984375,-0.4908289313316345,0.49015140533447266,-0.3352015018463135
1764544905282762500,4.045762451171875,0.0023311376571655273,0.24530887603759766,-0.5202052593231201
1764544905299516000,4.062515869140625,1.5171644687652588,1.1690120697021484,-1.670514464378357
1764544905316277000,4.079277099609375,-0.33189916610717773,0.8344306945800781,-1.3828569650650024
1764544905333037800,4.096037841796875,-1.0166666507720947,1.583237648010254,-0.1017601490020752
1764544905349793000,4.11279296875,-1.4192379713058472,1.4549646377563477,-0.223038911819458
1764544905366558200,4.12955810546875,-1.545607566833496,1.601414680480957,-0.08561348915100098
1764544905383321000,4.146321044921875,-1.2714364528656006,1.9683618545532227,-0.5630989074707031
1764544905400057000,4.16305712890625,-1.3822797536849976,0.26181697845458984,-1.0261770486831665
1764544905416844500,4.179844482421875,-1.0013103485107422,-1.3197517395019531,-0.16176414489746094
1764544905433594000,4.196593994140625,-0.8604581952095032,-1.1974992752075195,0.695702314376831
1764544905450376700,4.213376708984375,-0.4513031840324402,-2.826981544494629,1.0425989627838135
1764544905467134000,4.230134033203125,0.41087812185287476,-2.6734561920166016,1.106074333190918
1764544905483882000,4.246882080078125,0.5681121945381165,-1.4518651962280273,0.61029052734375
1764544905500649200,4.263649169921875,0.48350250720977783,0.1339254379272461,0.9412441253662109
1764544905517410800,4.280410888671875,0.13194608688354492,0.8951854705810547,-0.23503446578979492
1764544905534199600,4.297199462890625,-0.29233598709106445,1.1643905639648438,-0.852595329284668
1764544905550933800,4.313933837890625,-0.9603459239006042,0.9506359100341797,-1.296885371208191
1764544905567693800,4.33069384765625,-0.7610244750976562,1.5752558708190918,-0.9045059680938721
1764544905584454700,4.34745458984375,-0.47390347719192505,1.4018101692199707,-0.862389326095581
1764544905601216500,4.364216552734375,-0.37580591440200806,1.0992803573608398,-0.6127846240997314
1764544905617940000,4.38093994140625,-0.2521210312843323,0.674407958984375,-0.20949554443359375
1764544905634738700,4.39773876953125,-0.5651319026947021,-0.4089937210083008,0.7665872573852539
1764544905651482000,4.414482177734375,-0.9022727608680725,-0.5709085464477539,1.133650302886963
1764544905668260600,4.431260498046875,-0.8083484172821045,-0.2792224884033203,1.1007075309753418
1764544905685016300,4.448016357421875,-1.0536257028579712,0.6668128967285156,0.6800105571746826
1764544905701787600,4.46478759765625,-1.4593596458435059,1.198740005493164,0.639519214630127
1764544905718522000,4.481522216796875,-1.4082963466644287,1.0741939544677734,0.641094446182251
1764544905735311000,4.49831103515625,-1.1114965677261353,1.1044492721557617,0.3945286273956299
1764544905752066800,4.51506689453125,-2.171586751937866,1.3550739288330078,0.1449413299560547
1764544905768830500,4.53183056640625,-0.6876196265220642,0.8190059661865234,0.7404401302337646
1764544905785588700,4.548588623046875,0.30817753076553345,0.27533435821533203,0.6774916648864746
1764544905802350300,4.565350341796875,0.22989419102668762,0.6639251708984375,0.5566537380218506
1764544905819078100,4.582078125,-0.1809038370847702,0.3662128448486328,0.8569843769073486
1764544905835872300,4.598872314453125,-0.9914835691452026,-0.09882926940917969,1.1464204788208008
1764544905852633900,4.6156337890625,-1.909069299697876,-0.2559165954589844,1.1040527820587158
1764544905869367000,4.632366943359375,-2.31658935546875,-0.28893470764160156,0.698129415512085
1764544905886155500,4.649155517578125,-2.095663547515869,-0.4200105667114258,0.699608325958252
1764544905902891000,4.66589111328125,-1.2539101839065552,-0.43259143829345703,0.5994656085968018
1764544905919666000,4.682666015625,-0.4246360957622528,-0.4668703079223633,0.5958588123321533
1764544905936444000,4.69944384765625,-0.08569486439228058,-0.3495798110961914,0.6494526863098145
1764544905953200600,4.71620068359375,0.23705115914344788,-0.4498271942138672,0.78000807762146
1764544905969953800,4.732953857421875,0.7939008474349976,-1.2138614654541016,0.8010406494140625
1764544905986727000,4.749726806640625,1.2505834102630615,-1.8274507522583008,1.0375220775604248
1764544906003484200,4.766484130859375,1.310265064239502,-1.7863969802856445,0.6924610137939453
1764544906020242000,4.783241943359375,1.356480598449707,-1.5137214660644531,0.5970954895019531
1764544906037011500,4.800011474609375,0.4485064744949341,-0.9181985855102539,0.46984004974365234
1764544906053772800,4.816772705078125,-0.06753942370414734,-0.049363136291503906,0.19318532943725586
1764544906070528300,4.8335283203125,-0.5444939136505127,0.7104206085205078,0.40103793144226074
1764544906087289300,4.850289306640625,-0.47331809997558594,1.2507991790771484,0.37485599517822266
1764544906104050400,4.867050537109375,-0.17413941025733948,1.8216838836669922,0.17535877227783203
1764544906120811500,4.8838115234375,0.09553110599517822,2.057133197784424,-0.27939462661743164
1764544906137572900,4.90057275390625,0.5439335703849792,1.8053326606750488,-0.6667747497558594
1764544906154301000,4.917301025390625,0.9344223737716675,1.6197094917297363,-0.47442173957824707
1764544906171095000,4.934094970703125,1.0578641891479492,1.2680559158325195,-0.18866658210754395
1764544906187850000,4.95085009765625,1.1394675970077515,0.9528112411499023,-0.03248333930969238
1764544906204622800,4.967622802734375,1.0961670875549316,0.3869743347167969,0.19143295288085938
1764544906221379800,4.9843798828125,1.1805847883224487,-0.28173351287841797,0.6802952289581299
1764544906238137900,5.001137939453125,1.5102286338806152,-0.5191822052001953,1.2464756965637207
1764544906254901200,5.0179013671875,1.733144760131836,-0.7158660888671875,1.3724777698516846
1764544906271623700,5.034623779296875,1.7657878398895264,-0.6395769119262695,1.283592700958252
1764544906288427800,5.051427734375,1.3551132678985596,-0.2258777618408203,1.1032631397247314
1764544906305184300,5.068184326171875,1.0859336853027344,-0.04281806945800781,0.8760144710540771
1764544906321953300,5.084953369140625,0.7296742796897888,0.2720756530761719,0.5536260604858398
1764544906338700300,5.1017001953125,0.3745999336242676,0.30442047119140625,0.2645399570465088
1764544906355468500,5.118468505859375,-0.061716675758361816,0.21818923950195312,-0.06811285018920898
1764544906372182800,5.135182861328125,-0.2293105125427246,0.16557788848876953,-0.11799836158752441
1764544906388990000,5.151989990234375,-0.22051948308944702,0.3475942611694336,-0.16098690032958984
1764544906405731800,5.16873193359375,-0.2554054260253906,0.42305946350097656,-0.03363204002380371
1764544906422472400,5.185472412109375,0.07897365093231201,0.34244441986083984,0.49085283279418945
1764544906439272400,5.2022724609375,0.5579496622085571,0.49322509765625,0.6140329837799072
1764544906456034800,5.219034912109375,0.612937331199646,0.6073369979858398,0.8271403312683105
1764544906472761000,5.235760986328125,0.4878600835800171,0.6423444747924805,0.6312541961669922
1764544906489546000,5.2525458984375,0.3055063486099243,0.4906940460205078,0.21334123611450195
1764544906506329000,5.2693291015625,-0.47737932205200195,0.8376712799072266,0.7694084644317627
1764544906523051000,5.286051025390625,-0.9799838066101074,1.0471081733703613,0.7237944602966309
1764544906539817200,5.302817138671875,-0.7416788935661316,0.8006830215454102,0.5176517963409424
1764544906556601600,5.3196015625,-0.697704553604126,0.9646053314208984,0.5251550674438477
1764544906573362200,5.336362060546875,-0.5458353757858276,0.9254846572875977,0.777299165725708
1764544906590123500,5.35312353515625,-0.7416050434112549,0.19957828521728516,0.5584959983825684
1764544906606884600,5.369884521484375,-0.8343887329101562,0.6085968017578125,0.8400208950042725
1764544906623646000,5.38664599609375,-0.6294265389442444,0.17281246185302734,0.7971866130828857
1764544906640406300,5.40340625,-0.704842746257782,0.021024703979492188,0.7909128665924072
1764544906657123000,5.420123046875,-0.8009350895881653,-0.11775493621826172,0.7068262100219727
1764544906673910000,5.436909912109375,-0.8751498460769653,-0.011308670043945312,0.6090011596679688
1764544906690682600,5.4536826171875,-0.762438952922821,0.1102304458618164,0.8741211891174316
1764544906707458000,5.4704580078125,-0.7159587144851685,0.22939586639404297,0.9176950454711914
1764544906724212700,5.487212646484375,-0.6432291269302368,0.27222251892089844,1.2809643745422363
1764544906740973300,5.503973388671875,-0.4093133211135864,0.4271697998046875,1.9004759788513184
1764544906757750800,5.520750732421875,0.4756208658218384,0.4300107955932617,1.6614580154418945
1764544906774460700,5.537460693359375,-0.1969376802444458,0.13936138153076172,1.4485902786254883
1764544906791260200,5.55426025390625,0.596189022064209,0.05754852294921875,1.6095094680786133
1764544906808018200,5.57101806640625,0.6988931894302368,-0.17151927947998047,1.1719391345977783
1764544906824780000,5.587780029296875,0.513304591178894,-0.4812803268432617,0.6540110111236572
1764544906841539800,5.604539794921875,0.3409167528152466,0.07290363311767578,0.6187546253204346
1764544906858302200,5.62130224609375,0.19497907161712646,-0.1736154556274414,0.44909167289733887
1764544906875037400,5.638037353515625,0.05915224552154541,-0.7445716857910156,0.4762718677520752
1764544906891823900,5.654823974609375,0.027753710746765137,-1.4417924880981445,-0.03425002098083496
1764544906908567000,5.671567138671875,0.3395552635192871,-1.2578105926513672,-0.1266794204711914
1764544906925330000,5.688329833984375,0.3467569351196289,-2.0280237197875977,-0.3297734260559082
1764544906942081500,5.70508154296875,0.18185913562774658,-2.303574562072754,-0.409435510635376
1764544906958868500,5.721868408203125,0.10895645618438721,-1.4229583740234375,-0.5202910900115967
1764544906975634200,5.73863427734375,0.05305159091949463,-0.630742073059082,-0.5403895378112793
1764544906992390400,5.755390380859375,-0.3206596374511719,0.027765274047851562,-0.4709336757659912
1764544907009152800,5.77215283203125,-0.6407870650291443,0.1600666046142578,-0.5863485336303711
1764544907025863700,5.78886376953125,-0.3933049440383911,0.808873176574707,-0.6941642761230469
1764544907042680000,5.80568017578125,-0.035614609718322754,0.8029203414916992,-1.117927074432373
1764544907059435800,5.822435791015625,0.02790224552154541,0.9304332733154297,-1.0550806522369385
1764544907076196900,5.83919677734375,0.3142662048339844,0.739954948425293,-1.4586583375930786
1764544907092957700,5.855957763671875,0.02261507511138916,0.8013486862182617,-1.7471545934677124
1764544907109713700,5.872713623046875,0.11862564086914062,0.1820831298828125,-1.8311246633529663
1764544907126485500,5.889485595703125,-0.0643930435180664,-0.4303627014160156,-1.3431370258331299
1764544907143240700,5.90624072265625,-0.4188922643661499,-0.8323068618774414,-1.3576425313949585
1764544907159980500,5.92298046875,-0.7298097610473633,-1.2970094680786133,-1.6352256536483765
1764544907176763400,5.939763427734375,-0.5948574542999268,-1.2261533737182617,-1.3188598155975342
1764544907193499400,5.95649951171875,-0.3191928267478943,-1.3402175903320312,-1.109956979751587
1764544907210285600,5.97328564453125,-0.30720335245132446,-1.4209327697753906,-1.0340354442596436
1764544907227047200,5.990047119140625,-0.2396591305732727,-1.016153335571289,-0.4059722423553467
1764544907243807500,6.006807373046875,-0.10069102048873901,-0.966425895690918,0.10065007209777832
1764544907260563700,6.023563720703125,-0.03887277841567993,-0.8165988922119141,0.20171689987182617
1764544907277303600,6.040303466796875,0.15018200874328613,-0.42252635955810547,0.06809568405151367
1764544907294060300,6.057060302734375,0.2535349726676941,0.09504318237304688,-0.17555475234985352
1764544907310858800,6.073858642578125,0.11641234159469604,0.3512897491455078,-0.4380803108215332
1764544907327610600,6.090610595703125,-0.10546150803565979,0.46756649017333984,-0.7120344638824463
1764544907344374500,6.10737451171875,-0.40842974185943604,0.5475320816040039,-0.9500534534454346
1764544907361137200,6.12413720703125,-0.7182419300079346,0.6664466857910156,-0.9676921367645264
1764544907377900000,6.140900146484375,-1.062360167503357,0.858546257019043,-0.9077103137969971
1764544907394658800,6.157658935546875,-1.3242418766021729,1.0392684936523438,-0.8002502918243408
1764544907411394000,6.17439404296875,-1.3382246494293213,1.2249479293823242,-0.6556591987609863
1764544907428136400,6.191136474609375,-1.1470940113067627,1.3783063888549805,-0.4707629680633545
1764544907444912400,6.207912353515625,-0.9665296077728271,1.5701780319213867,-0.14358830451965332
1764544907461703400,6.224703369140625,-0.9092488288879395,1.6420421600341797,0.21314501762390137
1764544907478425300,6.24142529296875,-0.9364721775054932,1.344313144683838,0.416520357131958
1764544907495225300,6.258225341796875,-1.0959851741790771,1.3132147789001465,1.045720100402832
1764544907511981600,6.274981689453125,-0.7855326533317566,0.4811077117919922,0.6739869117736816
1764544907528720100,6.29172021484375,-0.6266838908195496,0.44378185272216797,0.9006733894348145
1764544907545508000,6.308508056640625,-0.40402472019195557,0.3233795166015625,0.7178134918212891
1764544907562270200,6.325270263671875,-0.30738288164138794,0.28632640838623047,0.7393887042999268
1764544907578984200,6.341984130859375,-0.4192766547203064,0.2888164520263672,0.7995741367340088
1764544907595792100,6.358792236328125,-0.8715687394142151,0.19879150390625,0.4238567352294922
1764544907612553700,6.3755537109375,-1.1952245235443115,0.0777578353881836,0.011050224304199219
1764544907629273000,6.392273193359375,-1.2386226654052734,-0.2006855010986328,-0.4029428958892822
1764544907646075000,6.409074951171875,-0.7301009893417358,-0.6671838760375977,-0.512089729309082
1764544907662822000,6.42582177734375,-0.07101687788963318,-1.4431514739990234,-0.7158751487731934
1764544907679562200,6.442562255859375,0.21883150935173035,-1.854487419128418,-0.33118557929992676
1764544907696341200,6.45934130859375,0.779640793800354,-2.584676742553711,-0.6550805568695068
1764544907713120300,6.476120361328125,1.4960530996322632,-2.712435722351074,-0.7062733173370361
1764544907729845000,6.492844970703125,2.200268507003784,-2.5102901458740234,-0.6323049068450928
1764544907746648300,6.5096484375,2.477764368057251,-1.617405891418457,-0.39427614212036133
1764544907763397400,6.5263974609375,2.0499346256256104,-1.2561559677124023,-0.200531005859375
1764544907780161500,6.54316162109375,0.9953357577323914,-0.4371328353881836,-0.41298556327819824
1764544907796925700,6.55992578125,0.23880885541439056,-0.3068265914916992,-0.4291534423828125
1764544907813687000,6.57668701171875,-0.17502614855766296,0.34069252014160156,-0.19290685653686523
1764544907830443500,6.593443603515625,-0.09713643789291382,1.0668601989746094,-0.12841320037841797
1764544907847209500,6.61020947265625,0.30318063497543335,1.624826431274414,-0.4183180332183838
1764544907863970600,6.626970458984375,0.8404158353805542,1.6894865036010742,-0.7754077911376953
1764544907880693000,6.64369287109375,1.19979727268219,1.5334978103637695,-1.0171782970428467
1764544907897511400,6.660511474609375,1.3659682273864746,1.2410469055175781,-0.9637463092803955
1764544907914229200,6.677229248046875,1.4269744157791138,0.807917594909668,-0.8504934310913086
1764544907931006000,6.694005859375,1.4962462186813354,0.3202629089355469,-0.6788277626037598
1764544907947739000,6.71073876953125,1.3187079429626465,0.017218589782714844,-0.4012632369995117
1764544907964511700,6.72751171875,1.5836231708526611,-0.31310081481933594,-0.06826090812683105
1764544907981284600,6.74428466796875,1.9192478656768799,-0.5452547073364258,0.34752440452575684
1764544907998048500,6.761048583984375,2.0648322105407715,-0.6405677795410156,0.7235517501831055
1764544908014814700,6.777814697265625,1.9326283931732178,-0.6288957595825195,0.8940324783325195
1764544908031572200,6.794572265625,1.6128321886062622,-0.41642189025878906,0.9210770130157471
1764544908048342300,6.81134228515625,1.3295457363128662,-0.21584224700927734,0.7585568428039551
1764544908065104100,6.828104248046875,1.1339237689971924,0.12416553497314453,0.46300435066223145
1764544908081862400,6.8448623046875,0.9911491274833679,0.5125818252563477,0.20344305038452148
1764544908098632700,6.8616328125,0.6633269786834717,0.6898994445800781,0.03432297706604004
1764544908115387600,6.8783876953125,0.32600289583206177,0.7419328689575195,-0.22642850875854492
1764544908132105000,6.89510498046875,0.1336456537246704,0.6861190795898438,-0.46550750732421875
1764544908148909600,6.91190966796875,0.15386974811553955,0.5381402969360352,-0.5966179370880127
1764544908165671200,6.928671142578125,0.3284212350845337,0.34201526641845703,-0.5303046703338623
1764544908182393300,6.945393310546875,0.5415998697280884,0.10201835632324219,-0.31243348121643066
1764544908199163400,6.962163330078125,0.7073730230331421,-0.09916305541992188,-0.05289411544799805
1764544908215955000,6.978954833984375,0.7438063621520996,-0.13128089904785156,0.18524885177612305
1764544908232682200,6.99568212890625,0.6651984453201294,0.05705070495605469,0.2314167022705078
1764544908249476000,7.01247607421875,0.42307305335998535,0.2529258728027344,0.2440636157989502
1764544908266231800,7.029231689453125,0.16864442825317383,0.4552288055419922,0.19292235374450684
1764544908282977000,7.04597705078125,-0.05121970176696777,0.5598287582397461,0.22241854667663574
1764544908299759600,7.062759521484375,-0.15230965614318848,0.5783672332763672,0.2528228759765625
1764544908316521200,7.079521240234375,-0.2105158567428589,0.5484695434570312,0.34278202056884766
1764544908333283300,7.096283447265625,-0.22077107429504395,0.5370454788208008,0.43044161796569824
1764544908350043400,7.11304345703125,-0.3027036190032959,0.5391931533813477,0.4215068817138672
1764544908366804700,7.1298046875,-0.4628026485443115,0.5102634429931641,0.3374481201171875
1764544908383565600,7.146565673828125,-0.5118809342384338,0.42128944396972656,0.2184760570526123
1764544908400326400,7.163326416015625,-0.5830261707305908,0.34763526916503906,0.1790628433227539
1764544908417088500,7.180088623046875,-0.5765372514724731,0.3325319290161133,0.18996334075927734
1764544908433843700,7.19684375,-0.5014476180076599,0.29389286041259766,0.3559439182281494
1764544908450566100,7.213566162109375,-0.39944958686828613,0.1972789764404297,0.674644947052002
1764544908467371800,7.230371826171875,-0.31668663024902344,0.17291736602783203,0.9563801288604736
1764544908484131300,7.24713134765625,-0.32765936851501465,0.19014263153076172,1.1284306049346924
1764544908500893700,7.263893798828125,-0.38520824909210205,0.20537281036376953,1.158189058303833
1764544908517655300,7.2806552734375,-0.3579026460647583,0.2825946807861328,1.1520869731903076
1764544908534400500,7.297400390625,-0.26479029655456543,0.3970756530761719,1.1611850261688232
1764544908551177000,7.314177001953125,-0.2138761281967163,0.42217159271240234,1.2009036540985107
1764544908567939000,7.33093896484375,-0.2709609270095825,0.4414033889770508,1.3317928314208984
1764544908584699400,7.347699462890625,-0.18187570571899414,0.36434173583984375,1.4240789413452148
1764544908601460500,7.36446044921875,-0.0790090560913086,0.22375774383544922,1.3729939460754395
1764544908618222300,7.381222412109375,0.1973956823348999,0.16103172302246094,1.249732255935669
1764544908634951000,7.397950927734375,0.4305919408798218,0.0020093917846679688,1.1563184261322021
1764544908651743500,7.414743408203125,0.6631643772125244,-0.09530925750732422,0.9396100044250488
1764544908668505000,7.431505126953125,0.7045319080352783,-0.15001392364501953,0.6287517547607422
1764544908685238500,7.448238525390625,0.772367000579834,-0.3809623718261719,0.3366434574127197
1764544908701981000,7.46498095703125,0.6491669416427612,-0.688075065612793,0.051914215087890625
1764544908718788600,7.48178857421875,0.48436224460601807,-1.1297693252563477,-0.09629631042480469
1764544908735524400,7.4985244140625,0.3381892442703247,-1.425053596496582,-0.12844252586364746
1764544908752310500,7.515310546875,0.3189718723297119,-1.488448143005371,-0.13959407806396484
1764544908769073000,7.532072998046875,0.400219202041626,-1.4349327087402344,-0.0675361156463623
1764544908785793800,7.548793701171875,0.47484898567199707,-1.3347625732421875,-0.040558815002441406
1764544908802578200,7.565578125,0.7026306390762329,-0.847294807434082,-0.4062678813934326
1764544908819356200,7.582356201171875,0.7319114208221436,-0.953765869140625,-0.6740376949310303
1764544908836117800,7.59911767578125,0.6228340864181519,-0.7552280426025391,-1.129408836364746
1764544908852877600,7.615877685546875,0.40461909770965576,-0.3826322555541992,-1.436202049255371
1764544908869633000,7.632633056640625,0.3076668977737427,-0.03784370422363281,-1.868209719657898
1764544908886407000,7.649406982421875,0.2101306915283203,0.3384428024291992,-2.211207151412964
1764544908903161000,7.6661611328125,-0.17303764820098877,0.6166410446166992,-2.3965938091278076
1764544908919922400,7.68292236328125,-0.7807535529136658,0.8540802001953125,-2.3174638748168945
1764544908936651500,7.699651611328125,-1.1520915031433105,0.8675823211669922,-2.097550392150879
1764544908953399800,7.71639990234375,-1.2469871044158936,0.4540719985961914,-1.6032778024673462
1764544908970206700,7.733206787109375,-0.8512604832649231,-0.3012275695800781,-0.8085315227508545
1764544908986947300,7.749947265625,-0.4132363498210907,-1.0297927856445312,0.02695751190185547
1764544909003728000,7.766727783203125,0.014093577861785889,-1.5072193145751953,0.28403782844543457
1764544909020489500,7.783489501953125,0.4319116473197937,-1.4904298782348633,0.21811699867248535
1764544909037255700,7.800255615234375,0.8190675377845764,-1.1886911392211914,0.2558012008666992
1764544909053986300,7.816986328125,0.9597159028053284,-0.8962802886962891,0.0861959457397461
1764544909070773200,7.833773193359375,0.9000768661499023,-0.47788333892822266,-0.1409912109375
1764544909087534300,7.850534423828125,0.6345402002334595,-0.017769813537597656,-0.6547808647155762
1764544909104295000,7.867294921875,0.12321799993515015,0.30303478240966797,-1.4264311790466309
1764544909121056300,7.88405615234375,-0.3699145019054413,0.5665740966796875,-1.9592103958129883
1764544909137801700,7.9008017578125,-0.6685177087783813,0.6709794998168945,-2.052816867828369
1764544909154579200,7.9175791015625,-0.703648567199707,0.7745437622070312,-1.8512364625930786
1764544909171340000,7.934340087890625,-0.4561183452606201,0.7924928665161133,-1.552085518836975
1764544909188104700,7.951104736328125,-0.1913929581642151,0.7157802581787109,-1.19693922996521
1764544909204830000,7.967829833984375,-0.0038093924522399902,0.7214574813842773,-0.7533903121948242
1764544909221623300,7.984623291015625,0.11336329579353333,0.7665910720825195,-0.24959778785705566
1764544909238341400,8.00134130859375,0.24285152554512024,0.7126150131225586,-0.04469466209411621
1764544909255145700,8.018145751953124,0.34506574273109436,0.8268928527832031,0.3762040138244629
1764544909271900700,8.034900634765625,0.30868205428123474,0.7012205123901367,0.5706171989440918
1764544909288639000,8.051638916015625,0.1342511773109436,0.4793272018432617,0.4122593402862549
1764544909305423000,8.068423095703125,-0.10777494311332703,0.31134891510009766,0.1725163459777832
1764544909322196700,8.08519677734375,-0.27680474519729614,0.1924295425415039,-0.058838844299316406
1764544909338951200,8.101951171875,-0.3579126298427582,0.04174995422363281,-0.2508821487426758
1764544909355712000,8.1187119140625,-0.5456218719482422,0.055352210998535156,-0.14403915405273438
1764544909372474400,8.135474365234375,-0.6819405555725098,-0.0800180435180664,0.11044764518737793
1764544909389239300,8.1522392578125,-0.7347397208213806,-0.15653705596923828,0.32356715202331543
1764544909405996000,8.16899609375,-0.6148137450218201,-0.23532962799072266,0.3311338424682617
1764544909422756900,8.1857568359375,-0.2849717438220978,-0.03444671630859375,0.5517079830169678
1764544909439488500,8.202488525390624,-0.1131989061832428,-0.09706497192382812,0.5455620288848877
1764544909456259800,8.219259765625,-0.07273423671722412,-0.10461711883544922,0.26534366607666016
1764544909473041400,8.23604150390625,-0.3714291453361511,0.034404754638671875,-0.21651649475097656
1764544909489777000,8.25277685546875,-0.929398238658905,0.06171131134033203,-0.5648565292358398
1764544909506569000,8.26956884765625,-1.2804906368255615,-0.08367061614990234,-0.7164862155914307
1764544909523324400,8.286324462890626,-1.438293218612671,-0.3472433090209961,-0.4338221549987793
1764544909540057300,8.303057373046874,-1.2067571878433228,-0.5450935363769531,-0.2989668846130371
1764544909556844500,8.319844482421875,-0.7252594232559204,-0.4215526580810547,-0.20582342147827148
1764544909573610200,8.3366103515625,-0.25719520449638367,-0.27640533447265625,-0.34751319885253906
1764544909590359800,8.35335986328125,0.12490212917327881,-0.37103843688964844,-0.4704582691192627
1764544909607130000,8.370130126953125,0.29050832986831665,-0.8316516876220703,-0.36958932876586914
1764544909623891700,8.3868916015625,0.3493618071079254,-1.5323686599731445,-0.11860847473144531
1764544909640648200,8.403648193359375,0.4745289981365204,-2.015758514404297,0.014083385467529297
1764544909657413400,8.420413330078125,0.4933522343635559,-2.0424652099609375,-0.04126763343811035
1764544909674198300,8.4371982421875,0.3488859534263611,-1.9305362701416016,-0.15687155723571777
1764544909690937000,8.45393701171875,0.08893367648124695,-1.6323165893554688,-0.25830864906311035
1764544909707662000,8.470662109375,-0.13412272930145264,-1.1724128723144531,-0.15314102172851562
1764544909724458200,8.487458251953125,0.02043282985687256,-0.5423421859741211,0.029189348220825195
1764544909741213200,8.504213134765624,0.2951117753982544,0.27872657775878906,0.21100592613220215
1764544909757977300,8.520977294921876,0.47840651869773865,1.0456476211547852,0.23254013061523438
1764544909774742300,8.5377421875,0.6433344483375549,1.5199580192565918,0.13997554779052734
1764544909791502800,8.5545029296875,0.6862308979034424,1.4014172554016113,-0.042156219482421875
1764544909808257000,8.571257080078125,0.6751792430877686,0.9831323623657227,-0.06749224662780762
1764544909825032000,8.588031982421874,0.7731897830963135,0.5409984588623047,-0.16568303108215332
1764544909841786400,8.604786376953125,0.8793802857398987,0.38800525665283203,-0.4161050319671631
1764544909858547700,8.621547607421874,0.8854539394378662,0.43756103515625,-0.7278149127960205
1764544909875309000,8.63830908203125,1.0277602672576904,0.4783477783203125,-0.9123096466064453
1764544909892037000,8.655037109375,1.4338419437408447,0.392425537109375,-0.9596107006072998
1764544909908835300,8.67183544921875,1.7050185203552246,0.28345489501953125,-0.7895262241363525
1764544909925592000,8.688592041015625,1.5959711074829102,0.21736431121826172,-0.4009590148925781
1764544909942326000,8.705325927734375,1.3070955276489258,0.19905662536621094,-0.02699756622314453
1764544909959081000,8.7220810546875,1.2645463943481445,0.20877361297607422,0.24383997917175293
1764544909975876000,8.7388759765625,1.2385506629943848,0.23261642456054688,0.43093180656433105
1764544909992598500,8.7555986328125,1.1974027156829834,0.2047109603881836,0.4609508514404297
1764544910009397500,8.7723974609375,1.069985032081604,0.09652900695800781,0.36072444915771484
1764544910026159400,8.789159423828124,0.8157963752746582,-0.05687904357910156,0.1789546012878418
1764544910042882000,8.805882080078124,0.46978533267974854,-0.17709732055664062,-0.0922079086303711
1764544910059676700,8.8226767578125,0.013825774192810059,-0.2877473831176758,-0.34055066108703613
1764544910076446700,8.83944677734375,-0.48673903942108154,-0.44802188873291016,-0.49114108085632324
1764544910101566500,8.86456640625,-0.9385774731636047,-0.28071117401123047,-0.41016197204589844
1764544910118304000,8.881303955078126,-0.9305219650268555,0.051158905029296875,-0.17298078536987305
1764544910135117300,8.898117431640625,-0.5877549052238464,0.5327157974243164,0.1390523910522461
1764544910151867400,8.914867431640625,-0.22090721130371094,0.6802845001220703,0.4017913341522217
1764544910168593700,8.93159375,0.0895383358001709,0.7655105590820312,0.6006298065185547
1764544910185389300,8.948389404296876,0.2341099977493286,0.6763811111450195,0.7510571479797363
1764544910202151700,8.965151611328125,0.11208963394165039,0.5223588943481445,0.8645434379577637
1764544910218883300,8.98188330078125,-0.14656281471252441,0.3586721420288086,0.9064271450042725
1764544910235673300,8.99867333984375,-0.3835165500640869,0.15999889373779297,0.8143107891082764
1764544910252434700,9.0154345703125,-0.634839653968811,0.043654441833496094,0.6677377223968506
1764544910269200600,9.03220068359375,-0.7774472832679749,-0.0013475418090820312,0.5108158588409424
1764544910285956900,9.048956787109375,-0.8719138503074646,-0.0045833587646484375,0.333559513092041
1764544910302718500,9.065718505859374,-0.8774815201759338,0.056313514709472656,0.22922754287719727
1764544910319436000,9.08243603515625,-0.8444157838821411,0.19330215454101562,0.23897910118103027
1764544910336240400,9.099240478515625,-0.8690207004547119,0.2667531967163086,0.32602524757385254
1764544910353002000,9.116001953125,-0.9262065291404724,0.3111753463745117,0.4025301933288574
1764544910369718300,9.13271826171875,-0.9942410588264465,0.3132667541503906,0.4383723735809326
1764544910386515700,9.149515625,-1.0212856531143188,0.2841062545776367,0.40619802474975586
1764544910403285200,9.16628515625,-0.9663507342338562,0.13768577575683594,0.3966362476348877
1764544910420013000,9.183012939453125,-0.859788715839386,0.08954143524169922,0.34773969650268555
1764544910436807700,9.1998076171875,-0.7308111786842346,0.09015846252441406,0.33327603340148926
1764544910453563000,9.21656298828125,-0.6954017281532288,0.14382648468017578,0.38736653327941895
1764544910470308400,9.233308349609375,-0.7490289807319641,0.25899219512939453,0.5294713973999023
1764544910487090700,9.250090576171875,-0.8268656134605408,0.32628345489501953,0.6117279529571533
1764544910503852500,9.2668525390625,-0.8511922955513,0.3305215835571289,0.6767263412475586
1764544910520617000,9.283616943359375,-0.8594006896018982,0.2763671875,0.7046222686767578
1764544910537374200,9.300374267578125,-0.6984097957611084,0.35958385467529297,0.8610076904296875
1764544910554110700,9.31711083984375,-0.5706043243408203,0.47466087341308594,1.0225412845611572
1764544910570853600,9.333853515625,-0.42371582984924316,0.41570281982421875,1.1122334003448486
1764544910587657500,9.350657470703124,-0.17974388599395752,0.38626956939697266,1.3444499969482422
1764544910604419600,9.367419677734375,-0.10832381248474121,0.2613515853881836,1.368727684020996
1764544910621141200,9.384141357421875,0.010021209716796875,0.14052867889404297,1.357574701309204
1764544910637931000,9.400930908203126,0.1956789493560791,0.011442184448242188,1.2314984798431396
1764544910654703000,9.417703125,0.16488468647003174,-0.07460689544677734,0.9711148738861084
1764544910671431000,9.434430908203124,0.19358515739440918,-0.1026620864868164,0.7375514507293701
1764544910688224500,9.451224609375,0.1847466230392456,-0.3403797149658203,0.46146345138549805
1764544910704989400,9.467989501953125,0.07795882225036621,-0.7028064727783203,0.321605920791626
1764544910721717000,9.484717041015625,-0.08191072940826416,-1.0121545791625977,0.16831755638122559
1764544910738508800,9.5015087890625,-0.1778010129928589,-1.2009544372558594,0.02591991424560547
1764544910755270100,9.518270263671875,-0.09947896003723145,-1.2510700225830078,-0.1145331859588623
1764544910772024800,9.53502490234375,0.02678966522216797,-1.140878677368164,-0.15584921836853027
1764544910788797700,9.551797607421875,0.08854091167449951,-0.8375511169433594,-0.10763216018676758
1764544910805554000,9.568553955078125,0.004196286201477051,-0.6066141128540039,-0.04819202423095703
1764544910822297600,9.585297607421875,-0.13791346549987793,-0.34486865997314453,-0.04295635223388672
1764544910839075300,9.602075439453126,-0.2438739538192749,-0.1954498291015625,-0.00304412841796875
1764544910855810800,9.618810791015624,-0.2824610471725464,-0.18683815002441406,-0.07460403442382812
1764544910872601300,9.635601318359376,-0.2024775743484497,-0.22304248809814453,-0.1648120880126953
1764544910889350700,9.6523505859375,-0.08565247058868408,-0.16530227661132812,-0.27053260803222656
1764544910906121000,9.669120849609374,0.01204216480255127,-0.06246376037597656,-0.36777400970458984
1764544910922836700,9.685836669921875,0.11649024486541748,-0.06381607055664062,-0.4545907974243164
1764544910939642600,9.702642578125,0.176841139793396,-0.06974124908447266,-0.4949955940246582
1764544910956402700,9.719402587890626,0.2292085886001587,-0.07552623748779297,-0.5656664371490479
1764544910973127400,9.73612744140625,0.31012415885925293,0.09445476531982422,-0.658411979675293
1764544910989919200,9.752919189453126,0.3209381103515625,0.3200540542602539,-0.8985538482666016
1764544911006694400,9.7696943359375,0.20782220363616943,0.5478067398071289,-1.2533314228057861
1764544911023445200,9.7864453125,-0.050361037254333496,0.6717710494995117,-1.5994043350219727
1764544911040209400,9.80320947265625,-0.27827030420303345,0.4387521743774414,-1.8381156921386719
1764544911056970800,9.819970703125,-0.36237984895706177,0.12461090087890625,-1.9927637577056885
1764544911073752300,9.83675244140625,-0.33904170989990234,-0.31178760528564453,-1.782727599143982
1764544911090492400,9.853492431640625,-0.23936069011688232,-0.736109733581543,-1.3274036645889282
1764544911107254500,9.870254638671875,-0.23752301931381226,-1.0342178344726562,-0.934960126876831
1764544911123986200,9.886986083984375,-0.25732478499412537,-1.0414505004882812,-0.5302293300628662
1764544911140734500,9.903734375,-0.20275208353996277,-1.002838134765625,-0.2650470733642578
1764544911157512400,9.920512451171875,-0.058997929096221924,-0.9599790573120117,-0.10138249397277832
1764544911174273000,9.93727294921875,0.3566240668296814,-0.7684030532836914,-0.03248310089111328
1764544911191034400,9.954034423828125,0.6305572390556335,-0.5797252655029297,-0.3013899326324463
1764544911207801000,9.970801025390625,0.5232284069061279,-0.41187381744384766,-0.5013210773468018
1764544911224550700,9.987550537109374,0.22682175040245056,-0.19842529296875,-0.8096351623535156
1764544911241344300,10.00434423828125,-0.0934237539768219,0.06200981140136719,-1.0162866115570068
1764544911258105600,10.021105712890625,-0.3745010197162628,0.3264904022216797,-1.161487102508545
1764544911274880000,10.0378798828125,-0.5592886805534363,0.48415470123291016,-1.1422374248504639
1764544911291626800,10.054626708984374,-0.6439051628112793,0.5001163482666016,-1.0188734531402588
1764544911308389000,10.07138916015625,-0.620231032371521,0.468658447265625,-0.7304835319519043
1764544911325149000,10.08814892578125,-0.5208428502082825,0.4237346649169922,-0.5170841217041016
1764544911341910800,10.104910888671874,-0.46454936265945435,0.41672706604003906,-0.3316960334777832
1764544911358672100,10.121672119140625,-0.37557947635650635,0.4660072326660156,-0.18719029426574707
1764544911375433200,10.13843310546875,-0.24388188123703003,0.47870635986328125,-0.12314200401306152
1764544911392152000,10.155152099609374,-0.1902022510766983,0.45351696014404297,-0.05921745300292969
1764544911408956200,10.1719560546875,-0.22035908699035645,0.3680534362792969,-0.11305403709411621
1764544911425716000,10.188716064453125,-0.3107863664627075,0.41440868377685547,-0.19991159439086914
1764544911442477800,10.205477783203126,-0.4274628162384033,0.5265989303588867,-0.24031352996826172
1764544911459235300,10.2222353515625,-0.5404849052429199,0.5870094299316406,-0.27868127822875977
1764544911476004000,10.239004150390626,-0.5993486642837524,0.6678466796875,-0.2653961181640625
1764544911492760800,10.2557607421875,-0.6143873929977417,0.7411670684814453,-0.1746044158935547
1764544911509520100,10.27252001953125,-0.6648545861244202,0.6637468338012695,-0.12096571922302246
1764544911526285600,10.28928564453125,-0.6984564065933228,0.6396322250366211,-0.06457209587097168
1764544911543044900,10.306044921875,-0.8006362915039062,0.5669536590576172,-0.008608579635620117
1764544911559806200,10.32280615234375,-0.9402604103088379,0.40125370025634766,0.1007070541381836
1764544911576566800,10.33956689453125,-1.00046968460083,0.10001945495605469,0.19304990768432617
1764544911593327600,10.35632763671875,-0.8896472454071045,-0.27617835998535156,0.21631097793579102
1764544911610090200,10.37309033203125,-0.6823630332946777,-0.5926141738891602,0.18753838539123535
1764544911626850000,10.38985009765625,-0.416803240776062,-0.7812795639038086,0.1581270694732666
1764544911643586800,10.4065869140625,-0.3373355269432068,-0.7948246002197266,0.009269475936889648
1764544911660373000,10.423373046875,-0.6565806269645691,-0.7407264709472656,-0.18494749069213867
1764544911677134300,10.44013427734375,-1.2800381183624268,-0.892155647277832,-0.3337216377258301
1764544911693879600,10.456879638671875,-1.598393201828003,-0.9910421371459961,-0.2514643669128418
1764544911710650600,10.473650634765624,-1.6606628894805908,-0.9494972229003906,-0.1356191635131836
1764544911727423500,10.490423583984375,-1.4815630912780762,-0.7409496307373047,-0.09642505645751953
1764544911744173300,10.50717333984375,-1.105871558189392,-0.6070146560668945,-0.1856088638305664
1764544911760945700,10.523945556640625,-0.7450617551803589,-0.6366024017333984,-0.2852315902709961
1764544911777701000,10.540701171875,-0.534511148929596,-0.8490314483642578,-0.23899388313293457
1764544911794462700,10.557462646484375,-0.35423755645751953,-1.2283077239990234,-0.1738114356994629
1764544911811224600,10.574224609375,-0.2668396830558777,-1.419534683227539,-0.14362454414367676
1764544911827984000,10.59098388671875,-0.24129968881607056,-1.1446895599365234,-0.19731998443603516
1764544911844746000,10.60774609375,-0.2955647110939026,-0.7222757339477539,-0.26256275177001953
1764544911861507300,10.62450732421875,-0.3360587954521179,-0.4075613021850586,-0.24533343315124512
1764544911878268400,10.641268310546875,-0.4133686125278473,-0.16359424591064453,-0.022963762283325195
1764544911895018000,10.65801806640625,-0.3810752332210541,0.06324481964111328,0.1501941680908203
1764544911911791400,10.674791259765625,-0.24230355024337769,0.3827018737792969,0.1681656837463379
1764544911928551200,10.69155126953125,-0.073963463306427,0.5444307327270508,-0.026034116744995117
1764544911945312800,10.708312744140626,0.06175142526626587,0.5082302093505859,-0.25808262825012207
1764544911962068000,10.72506787109375,0.2589840292930603,0.49522876739501953,-0.4812655448913574
1764544911978841900,10.741841796875,0.5250824093818665,0.5506858825683594,-0.7754027843475342
1764544911995596300,10.75859619140625,0.7220688462257385,0.6465654373168945,-1.0685129165649414
1764544912012358700,10.775358642578125,0.9299391508102417,0.6220741271972656,-1.2845146656036377
1764544912029118500,10.792118408203125,1.1493644714355469,0.3565378189086914,-1.3377788066864014
1764544912045880300,10.80888037109375,1.070043921470642,-0.05596637725830078,-0.8557264804840088
1764544912062641400,10.825641357421874,1.1572130918502808,-0.4484834671020508,-0.4694862365722656
1764544912079402200,10.84240234375,1.108363389968872,-0.6013221740722656,-0.04631495475769043
1764544912096163600,10.85916357421875,1.0166910886764526,-0.6589946746826172,0.22371244430541992
1764544912112925400,10.875925537109374,0.9305194616317749,-0.5659599304199219,0.42179226875305176
1764544912129685800,10.892685791015625,0.8755124807357788,-0.46663665771484375,0.5711016654968262
1764544912146414300,10.909414306640626,0.7185965776443481,-0.3234901428222656,0.6114997863769531
1764544912163208700,10.926208740234374,0.45602166652679443,-0.11454582214355469,0.5454816818237305
1764544912179977500,10.9429775390625,0.2051001787185669,0.17923355102539062,0.3253169059753418
1764544912196730600,10.959730712890625,-0.06449270248413086,0.5476531982421875,0.11973214149475098
1764544912213492700,10.97649267578125,-0.25059181451797485,0.9285001754760742,-0.04886794090270996
1764544912230259700,10.993259765625,-0.2753526568412781,1.1835083961486816,-0.16235661506652832
1764544912247008000,11.010008056640626,-0.18418759107589722,1.33591890335083,-0.06768369674682617
1764544912263775500,11.026775390625,-0.026746392250061035,1.2378602027893066,0.1392533779144287
1764544912280536800,11.043536865234374,0.06762814521789551,1.009415626525879,0.45853304862976074
1764544912297297700,11.060297607421875,0.09181821346282959,0.874638557434082,0.7965545654296875
1764544912314034400,11.077034423828126,0.07735931873321533,0.6732091903686523,1.019075632095337
1764544912330819600,11.093819580078126,0.015892386436462402,0.46444034576416016,1.1003944873809814
1764544912347582000,11.11058203125,-0.1050577163696289,0.3182506561279297,1.2433397769927979
1764544912364343000,11.127343017578125,-0.24264883995056152,0.17849063873291016,1.3433914184570312
1764544912381103900,11.144103759765626,-0.38937461376190186,0.0779876708984375,1.29740309715271
1764544912397854700,11.160854736328124,-0.5227766036987305,-0.01967334747314453,1.0710985660552979
1764544912414627000,11.177626953125,-0.6298590898513794,-0.06431007385253906,0.7851676940917969
1764544912431361300,11.194361328125,-0.7145397067070007,0.03052806854248047,0.498126745223999
1764544912448148700,11.211148681640625,-0.8788756132125854,0.24153709411621094,0.2889280319213867
1764544912464909800,11.227909912109375,-1.0778720378875732,0.4458141326904297,0.13631796836853027
1764544912481671000,11.2446708984375,-1.167367696762085,0.6203289031982422,0.06316518783569336
1764544912498431700,11.261431640625,-1.1181994676589966,0.7026796340942383,0.05930900573730469
1764544912515194000,11.278194091796875,-1.1361695528030396,0.6965312957763672,0.15813946723937988
1764544912531954200,11.2949541015625,-1.067042350769043,0.38728904724121094,0.33182764053344727
1764544912548716000,11.311716064453124,-1.0320003032684326,0.15931034088134766,0.3955569267272949
1764544912565479000,11.32847900390625,-0.8828445672988892,-0.08938884735107422,0.554006814956665
1764544912582236000,11.34523583984375,-0.6825935244560242,-0.2635221481323242,0.8785297870635986
1764544912598999000,11.3619990234375,-0.4819148778915405,-0.3778066635131836,1.2555341720581055
1764544912615761400,11.378761474609375,-0.31225061416625977,-0.25763797760009766,1.6350069046020508
1764544912632521000,11.39552099609375,-0.29192185401916504,-0.05689811706542969,1.9524765014648438
1764544912649245000,11.412244873046875,-0.17657017707824707,0.1538553237915039,2.0969176292419434
1764544912666044400,11.42904443359375,-0.14658021926879883,0.38913631439208984,2.0585896968841553
1764544912682784300,11.4457841796875,-0.1549168825149536,0.5640602111816406,1.862004041671753
1764544912699566600,11.462566650390626,-0.11496782302856445,0.5943727493286133,1.4523887634277344
1764544912716328400,11.479328369140624,-0.10809051990509033,0.6296091079711914,0.9529621601104736
1764544912733088800,11.4960888671875,-0.12929368019104004,0.6171817779541016,0.7442362308502197
1764544912749839000,11.512839111328125,-0.04099714756011963,0.3532276153564453,0.5157966613769531
1764544912766622500,11.52962255859375,-0.06440412998199463,-0.2099742889404297,0.39606356620788574
1764544912783372800,11.546372802734375,-0.039847612380981445,-0.638524055480957,0.12216734886169434
1764544912800133400,11.56313330078125,0.04889845848083496,-0.9195308685302734,-0.11503243446350098
1764544912816895700,11.579895751953124,0.07589638233184814,-1.136672019958496,-0.29628682136535645
1764544912833656000,11.596656005859375,-0.026730656623840332,-1.2347946166992188,-0.4514586925506592
1764544912850417400,11.61341748046875,-0.3342766761779785,-1.2808208465576172,-0.5995132923126221
1764544912867178000,11.630177978515626,-0.5914706587791443,-1.3949460983276367,-0.8193213939666748
1764544912883939800,11.64693994140625,-0.6763914823532104,-1.443831443786621,-1.010301113128662
1764544912900681700,11.663681640625,-0.36955034732818604,-1.516596794128418,-1.2201414108276367
1764544912917463000,11.680463134765626,0.05730557441711426,-1.3522863388061523,-1.3804314136505127
1764544912934248200,11.697248291015624,0.2618417739868164,-1.0357608795166016,-1.4331634044647217
1764544912950984700,11.713984619140625,0.32040441036224365,-0.4856729507446289,-1.3093287944793701
1764544912967745800,11.730745849609375,0.1974940299987793,-0.046744346618652344,-1.3574528694152832
1764544912984507400,11.74750732421875,0.17846286296844482,0.5203647613525391,-1.478083610534668
1764544913001266400,11.764266357421874,0.03911137580871582,0.9262361526489258,-1.6199277639389038
1764544913018030800,11.78103076171875,-0.1600511074066162,0.978363037109375,-1.751078486442566
1764544913034791000,11.797791015625,-0.3647308349609375,0.7056903839111328,-1.9505746364593506
1764544913051551700,11.8145517578125,-0.668522834777832,0.2992982864379883,-2.0414183139801025
1764544913068313300,11.831313232421875,-0.8549405336380005,-0.25592613220214844,-1.832409381866455
1764544913085074400,11.848074462890626,-0.8493760824203491,-0.9645681381225586,-1.3979072570800781
1764544913101834800,11.864834716796874,-0.81061851978302,-1.5361204147338867,-1.0089716911315918
1764544913118596600,11.8815966796875,-0.7410308718681335,-1.4575977325439453,-0.3220250606536865
1764544913135358000,11.89835791015625,-0.4710885286331177,-1.2221736907958984,0.18957757949829102
1764544913152095500,11.915095458984375,-0.02459084987640381,-1.0441770553588867,0.18422889709472656
1764544913168880000,11.931880126953125,0.4829712510108948,-0.8296833038330078,-0.12601256370544434
1764544913185638000,11.948637939453125,0.6732552647590637,-0.4688072204589844,-0.3543667793273926
1764544913202402000,11.965402099609374,0.42679494619369507,0.07623958587646484,-0.647374153137207
1764544913219164400,11.982164306640625,0.048001110553741455,0.6719703674316406,-1.001274824142456
1764544913235925500,11.998925537109375,-0.3043881356716156,1.0766096115112305,-1.2457084655761719
1764544913252682500,12.0156826171875,-0.6142349243164062,1.2390942573547363,-1.2717602252960205
1764544913269453800,12.032453857421874,-0.9222630262374878,1.1470646858215332,-1.1124610900878906
1764544913286208800,12.049208740234375,-1.1363492012023926,1.0084505081176758,-0.9361042976379395
1764544913302969000,12.065968994140626,-1.2241703271865845,0.8568811416625977,-0.6833686828613281
1764544913319731500,12.0827314453125,-1.0951323509216309,0.6962623596191406,-0.35148072242736816
1764544913336492000,12.099491943359375,-0.7008504271507263,0.49895286560058594,-0.04611945152282715
1764544913353257500,12.116257568359375,-0.1299540400505066,0.46536827087402344,0.08218193054199219
1764544913370012700,12.1330126953125,0.15729865431785583,0.42080020904541016,0.08542132377624512
1764544913386778400,12.1497783203125,-0.012272059917449951,0.4601879119873047,0.003031492233276367
1764544913403511800,12.16651171875,-0.5310065150260925,0.5792951583862305,-0.029971837997436523
1764544913420298800,12.183298828125,-0.9827737808227539,0.7666292190551758,-0.09510588645935059
1764544913437064000,12.20006396484375,-1.1723662614822388,0.9189548492431641,-0.24500083923339844
1764544913453795600,12.216795654296876,-1.326786994934082,0.8594655990600586,-0.31433868408203125
1764544913470581800,12.233581787109374,-1.21761155128479,0.5226545333862305,-0.13354825973510742
1764544913487343400,12.25034326171875,-0.8833338618278503,-0.13646888732910156,-0.03753948211669922
1764544913504098000,12.26709814453125,-0.5256524085998535,-0.7116174697875977,-0.05978989601135254
1764544913520871700,12.28387158203125,-0.15379607677459717,-1.2447404861450195,-0.0002923011779785156
1764544913537626400,12.30062646484375,0.04107564687728882,-1.468658447265625,0.1188039779663086
1764544913554388500,12.317388427734375,-0.3219180107116699,-1.4712762832641602,0.1524827480316162
1764544913571149000,12.334149169921876,-1.0053378343582153,-1.3033018112182617,0.19640326499938965
1764544913587911000,12.350910888671875,-1.625823974609375,-0.9839076995849609,0.13669896125793457
1764544913604646000,12.36764599609375,-1.9778847694396973,-0.8821611404418945,-0.24506211280822754
1764544913621424600,12.384424560546876,-2.061005115509033,-0.8993082046508789,-0.36645030975341797
1764544913638201900,12.401201904296874,-1.9180641174316406,-0.7884111404418945,-0.4896218776702881
1764544913654952700,12.41795263671875,-1.8052706718444824,-0.5725164413452148,-0.5208921432495117
1764544913671716600,12.434716552734375,-1.5236307382583618,-0.3235597610473633,-0.570197343826294
1764544913688452400,12.451452392578124,-1.070345401763916,-0.13684749603271484,-0.5470645427703857
1764544913705238300,12.46823828125,-0.8504682779312134,-0.2529287338256836,-0.5254001617431641
1764544913721994500,12.484994384765624,-0.5345103144645691,-0.6536598205566406,-0.24184012413024902
1764544913738767000,12.50176708984375,-0.03279814124107361,-1.044785499572754,0.0984792709350586
1764544913755520300,12.518520263671874,0.40501004457473755,-1.3762664794921875,0.20356082916259766
1764544913772286000,12.535285888671876,0.5440672636032104,-1.7159004211425781,0.17043757438659668
1764544913789045200,12.552045166015626,0.5234681963920593,-1.8158798217773438,0.12612581253051758
1764544913805805600,12.5688056640625,0.492336630821228,-1.5674762725830078,0.14321613311767578
1764544913822568000,12.58556787109375,0.517357349395752,-0.9977016448974609,0.20325517654418945
1764544913839328800,12.602328857421876,0.7670484781265259,-0.24748516082763672,0.10993719100952148
1764544913856094000,12.619093994140625,1.063996434211731,0.538121223449707,-0.1147606372833252
1764544913872851200,12.635851318359375,1.1396427154541016,1.263047218322754,-0.5171236991882324
1764544913889606100,12.652606201171874,1.1887251138687134,1.7993364334106445,-0.955204963684082
1764544913906379300,12.669379150390625,1.1235051155090332,1.9624524116516113,-1.3981010913848877
1764544913923135000,12.686135009765625,1.1609545946121216,1.8324179649353027,-1.737109661102295
1764544913939892200,12.702892333984375,1.3892853260040283,1.5941863059997559,-1.8928136825561523
1764544913956646400,12.719646484375,1.645808219909668,1.0850329399108887,-1.5796079635620117
1764544913973422800,12.7364228515625,1.8609317541122437,0.27362918853759766,-0.9465160369873047
1764544913990179600,12.7531796875,1.7862945795059204,-0.35210132598876953,-0.22041654586791992
1764544914006935000,12.76993505859375,2.0034210681915283,-0.8009176254272461,0.1997075080871582
1764544914023708000,12.7867080078125,2.213024139404297,-1.0383367538452148,0.6328883171081543
1764544914040462800,12.803462890625,2.3289384841918945,-1.0551671981811523,0.9724817276000977
1764544914057224200,12.82022412109375,2.162984609603882,-0.9163379669189453,0.948610782623291
1764544914073960200,12.836960205078125,1.6117991209030151,-0.7384014129638672,0.8429603576660156
1764544914090741000,12.853740966796876,1.153510332107544,-0.48985862731933594,0.47815704345703125
1764544914107500800,12.870500732421876,0.8802509307861328,-0.04160785675048828,-0.035311222076416016
1764544914124278300,12.8872783203125,0.7052350640296936,0.5365495681762695,-0.49503040313720703
1764544914141029600,12.904029541015625,0.5068821310997009,1.1127629280090332,-0.7024874687194824
1764544914157777700,12.920777587890624,0.4127998352050781,1.5724339485168457,-0.624582052230835
1764544914174560800,12.937560791015626,0.38841763138771057,1.6001362800598145,-0.506800651550293
1764544914191290400,12.954290283203125,0.46312639117240906,1.350146770477295,-0.3272585868835449
1764544914208067600,12.971067626953126,0.5166521072387695,0.9776644706726074,-0.11446905136108398
1764544914224843800,12.98784375,0.5416557192802429,0.6035165786743164,0.10492515563964844
1764544914241597400,13.004597412109375,0.5358928442001343,0.25484466552734375,0.39520835876464844
1764544914258353200,13.021353271484376,0.605164110660553,-0.08835983276367188,0.7679438591003418
1764544914275127000,13.038126953125,0.6593221426010132,-0.28914833068847656,1.1243386268615723
1764544914291881700,13.0548818359375,0.5894441604614258,-0.37426185607910156,1.237544059753418
1764544914308632600,13.071632568359375,0.5360333323478699,-0.41292381286621094,1.1742100715637207
1764544914325414100,13.0884140625,0.4191943407058716,-0.32927608489990234,0.9774551391601562
1764544914342133200,13.10513330078125,0.2454454004764557,0.0068531036376953125,0.7801752090454102
1764544914358904800,13.12190478515625,0.09230732917785645,0.3575325012207031,0.5495400428771973
1764544914375657500,13.138657470703125,-0.05170053243637085,0.6922292709350586,0.35929203033447266
1764544914392409000,13.1554091796875,-0.1600426435470581,0.9645252227783203,0.14440441131591797
1764544914409195500,13.172195556640625,-0.24598649144172668,1.1459617614746094,-0.060915470123291016
1764544914425977600,13.1889775390625,-0.2550378441810608,1.065505027770996,-0.13442182540893555
1764544914442744000,13.205744140625,-0.2533039152622223,0.807774543762207,-0.13135147094726562
1764544914459492600,13.22249267578125,-0.16597367823123932,0.4375925064086914,-0.10983943939208984
1764544914476262400,13.239262451171875,-0.03698447346687317,0.09352588653564453,0.037034034729003906
1764544914493016300,13.256016357421874,0.1057097315788269,-0.11126136779785156,0.17653512954711914
1764544914509770800,13.272770751953125,0.13415920734405518,-0.09954452514648438,0.41774702072143555
1764544914526545000,13.289544921875,0.048101603984832764,0.1336355209350586,0.7552528381347656
1764544914543299300,13.30629931640625,0.11818158626556396,0.2292613983154297,1.1267004013061523
1764544914560051500,13.323051513671874,0.2323245108127594,0.3103179931640625,1.4305472373962402
1764544914576831500,13.33983154296875,0.248681902885437,0.4034128189086914,1.5849926471710205
1764544914593583600,13.35658349609375,0.5235425233840942,0.6108894348144531,1.4528236389160156
1764544914610335700,13.373335693359374,0.5696917772293091,0.68365478515625,0.9808645248413086
1764544914627114500,13.390114501953125,0.4077710509300232,0.6998729705810547,0.8836822509765625
1764544914643867100,13.4068671875,0.1934415102005005,0.556182861328125,0.819615364074707
1764544914660620500,13.42362060546875,0.15358781814575195,0.46688175201416016,0.6938743591308594
1764544914677397200,13.440397216796875,0.10626357793807983,0.2543802261352539,0.7146329879760742
1764544914694128600,13.457128662109374,0.13443833589553833,-0.10176467895507812,0.7398161888122559
1764544914710911500,13.473911376953126,0.08531630039215088,-0.3945808410644531,0.6390013694763184
1764544914727647700,13.490647705078125,0.059020400047302246,-0.5129594802856445,0.563136100769043
1764544914744434200,13.50743408203125,0.10902601480484009,-0.5793800354003906,0.5352001190185547
1764544914761190000,13.52418994140625,0.1478036642074585,-0.5900430679321289,0.5838594436645508
1764544914777962800,13.540962646484376,0.09172439575195312,-0.468231201171875,0.4884762763977051
1764544914794692900,13.55769287109375,-0.04508209228515625,-0.38863563537597656,0.39199280738830566
1764544914811470600,13.574470703125,-0.12164580821990967,-0.414154052734375,0.24100995063781738
1764544914828249300,13.591249267578124,-0.17222309112548828,-0.5704774856567383,0.10220932960510254
1764544914845001500,13.60800146484375,-0.25830280780792236,-0.6410636901855469,-0.03598666191101074
1764544914861755000,13.6247548828125,-0.2620807886123657,-0.6498279571533203,-0.21775317192077637
1764544914878531800,13.64153173828125,-0.2723461985588074,-0.6272907257080078,-0.3535635471343994
1764544914895285500,13.658285400390625,-0.14824378490447998,-0.5972480773925781,-0.5208148956298828
1764544914912039700,13.675039794921876,0.04131424427032471,-0.5418243408203125,-0.6033370494842529
1764544914928815000,13.691815185546876,0.23711097240447998,-0.30927371978759766,-0.5387132167816162
1764544914945540000,13.7085400390625,0.2608344554901123,-0.4675283432006836,-0.6277225017547607
1764544914962327600,13.72532763671875,0.22109508514404297,-0.4365987777709961,-0.7977266311645508
1764544914979087600,13.742087646484375,0.1247791051864624,-0.3106536865234375,-1.074829339981079
1764544914995853000,13.75885302734375,0.11660075187683105,0.1165933609008789,-1.3101282119750977
1764544915012607500,13.775607421875,0.09787392616271973,0.30043601989746094,-1.5961270332336426
1764544915029382100,13.792382080078125,-0.005278527736663818,0.24794387817382812,-1.8620673418045044
1764544915046130200,13.809130126953125,-0.14004731178283691,-0.019698143005371094,-1.9064548015594482
1764544915062904000,13.825904052734375,-0.17987418174743652,-0.35907745361328125,-1.5521962642669678
1764544915079658800,13.84265869140625,0.011043965816497803,-0.8920087814331055,-1.1809496879577637
1764544915096420600,13.859420654296875,0.23352432250976562,-1.4692916870117188,-0.9273338317871094
1764544915113181200,13.87618115234375,0.29269397258758545,-1.7770557403564453,-0.7270886898040771
1764544915129937200,13.892937255859374,0.14192450046539307,-1.4538803100585938,-0.46117401123046875
1764544915146710300,13.909710205078126,0.07683518528938293,-0.7299442291259766,-0.22657132148742676
1764544915163456000,13.9264560546875,0.1128973662853241,-0.12895488739013672,-0.27257776260375977
1764544915180235500,13.943235595703126,0.12875080108642578,0.08373832702636719,-0.3959176540374756
1764544915196959700,13.959959716796876,0.21896517276763916,0.07796764373779297,-0.5001194477081299
1764544915213694200,13.976694091796874,0.38525259494781494,0.1039285659790039,-0.7710931301116943
1764544915230500600,13.99350048828125,0.5001308917999268,0.24273300170898438,-1.1408238410949707
1764544915247271200,14.010271240234376,0.33259937167167664,0.4066810607910156,-1.4327797889709473
1764544915264031700,14.02703173828125,-0.027561664581298828,0.49315357208251953,-1.4845173358917236
1764544915280794400,14.04379443359375,-0.37005141377449036,0.4965343475341797,-1.3143179416656494
1764544915297549800,14.0605498046875,-0.5343703627586365,0.44135284423828125,-1.1195216178894043
1764544915314322400,14.077322509765626,-0.4965534210205078,0.42862606048583984,-0.8882238864898682
1764544915331078000,14.094077880859375,-0.4299713969230652,0.3775320053100586,-0.6369102001190186
1764544915347838500,14.11083837890625,-0.3134208023548126,0.3230447769165039,-0.4014618396759033
1764544915364601300,14.127601318359375,-0.18211230635643005,0.24144458770751953,-0.1956651210784912
1764544915381360400,14.1443603515625,-0.07160371541976929,0.18921184539794922,-0.05560040473937988
1764544915398122800,14.161122802734376,-0.09409385174512863,0.194610595703125,-0.16512298583984375
1764544915414875400,14.17787548828125,-0.26700645685195923,0.43265438079833984,-0.36376190185546875
1764544915431654100,14.194654052734375,-0.5460938811302185,0.7598857879638672,-0.43502306938171387
1764544915448380400,14.21138037109375,-0.7341822981834412,0.7899541854858398,-0.5189223289489746
1764544915465159700,14.22815966796875,-0.8824720978736877,0.7746849060058594,-0.4299027919769287
1764544915481901300,14.2449013671875,-0.958249032497406,0.7295017242431641,-0.24305391311645508
1764544915498690600,14.261690673828125,-0.9308424592018127,0.5745983123779297,-0.02759695053100586
1764544915515451100,14.278451171875,-0.630388081073761,0.4309053421020508,0.08274579048156738
1764544915532213200,14.295213134765625,-0.28159981966018677,0.19760894775390625,0.05536532402038574
1764544915548974600,14.311974609375,-0.20689260959625244,-0.11212825775146484,0.06002092361450195
1764544915565735000,14.32873486328125,-0.29782742261886597,-0.3161582946777344,0.24683761596679688
1764544915582495500,14.34549560546875,-0.5443453192710876,-0.3707160949707031,0.3707618713378906
1764544915599263700,14.362263671875,-0.922601044178009,-0.6302614212036133,0.25058436393737793
1764544915616001300,14.379001220703126,-1.1224082708358765,0.005932807922363281,0.6420092582702637
1764544915632791800,14.395791748046875,-1.1026694774627686,0.2886075973510742,0.5143144130706787
1764544915649533400,14.412533447265625,-1.108368158340454,0.3424844741821289,0.3764915466308594
1764544915666299400,14.42929931640625,-1.1809951066970825,0.33675670623779297,0.2335834503173828
1764544915683074600,14.446074462890625,-1.2333413362503052,0.02428150177001953,0.0011191368103027344
1764544915699808000,14.46280810546875,-1.0302488803863525,-0.15359115600585938,-0.06009793281555176
1764544915716569300,14.4795693359375,-0.7426517605781555,-0.4219398498535156,-0.2629528045654297
1764544915733350100,14.49635009765625,-0.46142417192459106,-0.7007074356079102,-0.6370055675506592
1764544915750108700,14.513108642578125,-0.2316739857196808,-1.1113710403442383,-1.0552527904510498
1764544915766869000,14.529868896484375,0.024524301290512085,-1.8339128494262695,-1.2642879486083984
1764544915783632600,14.546632568359374,0.2614058554172516,-2.8629398345947266,-1.1600525379180908
1764544915800383500,14.563383544921875,0.7002274990081787,-3.2440099716186523,-0.8615055084228516
1764544915817162800,14.580162841796875,1.1105635166168213,-2.9469947814941406,-0.7599647045135498
1764544915833890600,14.596890625,1.2510802745819092,-2.310452461242676,-0.6468429565429688
1764544915850675700,14.61367578125,1.1014453172683716,-1.6376228332519531,-0.5514070987701416
1764544915867438000,14.63043798828125,0.9391845464706421,-0.9872398376464844,-0.5554864406585693
1764544915884198700,14.64719873046875,0.886185884475708,-0.16057109832763672,-0.6680774688720703
1764544915900960000,14.6639599609375,1.0121619701385498,0.7599382400512695,-0.8458843231201172
1764544915917721600,14.6807216796875,1.1905189752578735,1.5174555778503418,-1.0755348205566406
1764544915934482200,14.697482177734376,1.294127106666565,2.0908141136169434,-1.4224226474761963
1764544915951234600,14.714234619140624,1.3994828462600708,2.290858745574951,-1.7081644535064697
1764544915967993300,14.730993408203124,1.6298154592514038,2.100492000579834,-1.822326421737671
1764544915984747500,14.74774755859375,1.9841560125350952,1.527052879333496,-1.8119158744812012
1764544916001527800,14.76452783203125,2.3838436603546143,0.601405143737793,-1.7536485195159912
1764544916018284800,14.781284912109374,2.523125648498535,-0.33867359161376953,-1.4098389148712158
1764544916035054300,14.798054443359375,2.74135160446167,-0.9144973754882812,-1.0862419605255127
1764544916051801000,14.814801025390626,2.623441457748413,-1.3320703506469727,-0.8705685138702393
1764544916068579600,14.83157958984375,2.5203943252563477,-1.5814361572265625,-0.5286056995391846
1764544916085336800,14.8483369140625,2.4312775135040283,-1.5959587097167969,0.07985496520996094
1764544916102095400,14.865095458984374,2.23407244682312,-1.443495750427246,0.49547910690307617
1764544916118854100,14.881854248046874,1.9166542291641235,-1.0275001525878906,0.43529701232910156
1764544916135620000,14.8986201171875,1.463735818862915,-0.2345447540283203,0.18174314498901367
1764544916152378400,14.91537841796875,1.025399923324585,0.4291410446166992,-0.2727847099304199
1764544916169138400,14.932138427734374,0.8420888185501099,0.9393625259399414,-0.6835289001464844
1764544916185902600,14.948902587890625,0.7454246282577515,1.2289328575134277,-0.9419295787811279
1764544916202637600,14.965637451171874,0.6748089790344238,1.320486068725586,-0.9057526588439941
1764544916219392300,14.982392333984375,0.6537177562713623,1.0758333206176758,-0.7580392360687256
1764544916236164600,14.99916455078125,0.711419939994812,0.7118768692016602,-0.4319751262664795
1764544916252946000,15.01594580078125,0.7866705656051636,0.4319114685058594,-0.19159841537475586
1764544916269696500,15.032696533203126,0.8448656797409058,0.21550846099853516,-0.02447509765625
1764544916286479400,15.049479248046875,0.8820639252662659,0.09000205993652344,0.08632516860961914
1764544916303228200,15.066228271484375,0.8601949214935303,-0.018235206604003906,0.19860124588012695
1764544916319977000,15.08297705078125,0.760226845741272,-0.16941356658935547,0.32134485244750977
1764544916336763400,15.099763427734375,0.603492021560669,-0.3602151870727539,0.3887672424316406
1764544916353507300,15.11650732421875,0.5128570795059204,-0.43076229095458984,0.25429296493530273
1764544916370252800,15.133252685546875,0.44942551851272583,-0.313079833984375,0.14324283599853516
1764544916387046000,15.1500458984375,0.3278217315673828,-0.08754253387451172,0.00482177734375
1764544916403798000,15.166798095703125,0.1948108673095703,0.13589096069335938,-0.15691804885864258
1764544916420517400,15.183517333984375,0.1078413724899292,0.2762422561645508,-0.2843141555786133
1764544916437329200,15.2003291015625,0.11273223161697388,0.3482828140258789,-0.34280824661254883
1764544916454055400,15.217055419921875,0.13751143217086792,0.3416290283203125,-0.3518691062927246
1764544916470798600,15.233798583984376,0.11649727821350098,0.28856563568115234,-0.33692359924316406
1764544916487578000,15.250578125,0.06146520376205444,0.24099159240722656,-0.29973340034484863
1764544916504365000,15.267364990234375,0.01201939582824707,0.15598583221435547,-0.28954648971557617
1764544916521122000,15.2841220703125,0.04596734046936035,0.1586465835571289,-0.024814844131469727
1764544916537892900,15.300892822265626,0.018663763999938965,0.23119354248046875,0.26625919342041016
1764544916554642700,15.317642578125,0.04151111841201782,0.41791439056396484,0.6080906391143799
1764544916571393000,15.33439306640625,0.17082643508911133,0.5186061859130859,0.9255831241607666
1764544916588179000,15.351178955078124,0.30047494173049927,0.501795768737793,1.0765085220336914
1764544916604932600,15.3679326171875,0.5759831666946411,0.47814464569091797,1.0636582374572754
1764544916621663000,15.3846630859375,0.702279269695282,0.3978233337402344,0.966583251953125
1764544916638462000,15.4014619140625,0.6455421447753906,0.2072763442993164,0.8000903129577637
1764544916655216400,15.41821630859375,0.5897157192230225,-0.11897945404052734,0.5929813385009766
1764544916671950300,15.434950439453125,0.5045185089111328,-0.29829883575439453,0.27967095375061035
1764544916688741400,15.451741455078125,0.4002009630203247,-0.46276283264160156,0.0699467658996582
1764544916705500700,15.468500732421875,0.3703368902206421,-0.5811929702758789,0.009768962860107422
1764544916722235400,15.4852353515625,0.33735716342926025,-0.6754522323608398,0.04814267158508301
1764544916738998300,15.501998291015624,0.30950140953063965,-0.7220573425292969,0.03341794013977051
1764544916755784200,15.5187841796875,0.27564406394958496,-0.7124204635620117,0.037613630294799805
1764544916772521000,15.53552099609375,0.2955145835876465,-0.7329635620117188,0.0997314453125
1764544916789305000,15.55230517578125,0.23872411251068115,-0.702362060546875,0.12157773971557617
1764544916806069500,15.569069580078125,0.18790864944458008,-0.6025733947753906,0.09668874740600586
1764544916822790100,15.5857900390625,0.06385946273803711,-0.6019926071166992,-0.04462552070617676
1764544916839598600,15.6025986328125,0.028353214263916016,-0.5075788497924805,-0.18475770950317383
1764544916856355000,15.61935498046875,0.06829416751861572,-0.42349815368652344,-0.36525464057922363
1764544916873076500,15.636076416015625,0.1259404420852661,-0.3644895553588867,-0.5380067825317383
1764544916889879000,15.652879150390625,0.2117748260498047,-0.27698802947998047,-0.7349116802215576
1764544916906642200,15.66964208984375,0.3268834352493286,-0.2997322082519531,-0.832615852355957
1764544916923362300,15.6863623046875,0.486804723739624,-0.3572511672973633,-0.8875057697296143
1764544916940165000,15.7031650390625,0.6403435468673706,-0.45924854278564453,-0.9608612060546875
1764544916956923000,15.7199228515625,0.7221037149429321,-0.5027360916137695,-1.040147304534912
1764544916973654800,15.73665478515625,0.7520608901977539,-0.6386470794677734,-1.1308131217956543
1764544916990444000,15.753444091796876,0.652074933052063,-0.8055343627929688,-1.265432596206665
1764544917007203300,15.770203369140624,0.4289153814315796,-0.6758270263671875,-1.5581032037734985
1764544917023988700,15.78698876953125,0.03522646427154541,-0.3376293182373047,-1.59139883518219
1764544917040727000,15.80372705078125,-0.2449493408203125,-0.052104949951171875,-1.803078532218933
1764544917057486800,15.82048681640625,-0.29224693775177,0.1580209732055664,-1.8101434707641602
1764544917074222300,15.837222412109375,-0.2991914749145508,0.13736629486083984,-1.6159461736679077
1764544917091003600,15.854003662109376,-0.4827752113342285,-0.09956741333007812,-1.3157963752746582
1764544917107777500,15.870777587890625,-0.6218074560165405,-0.39633846282958984,-0.9221274852752686
1764544917124506400,15.88750634765625,-0.6389000415802002,-0.6962480545043945,-0.3546173572540283
1764544917141292000,15.9042919921875,-0.22935155034065247,-1.0660810470581055,0.18900394439697266
1764544917158055700,15.9210556640625,0.28863102197647095,-1.3918046951293945,0.3367936611175537
1764544917174826200,15.937826171875,0.8560914993286133,-1.176072120666504,0.3751962184906006
1764544917191577000,15.9545771484375,1.0966120958328247,-0.6810541152954102,0.2010815143585205
1764544917208345300,15.971345458984375,1.0536524057388306,-0.3408966064453125,-0.09813284873962402
1764544917225108000,15.98810791015625,0.7834829092025757,0.04471015930175781,-0.4249153137207031
1764544917241875200,16.004875244140624,0.37639352679252625,0.46227169036865234,-0.7808337211608887
1764544917258628000,16.021628173828127,-0.014765709638595581,0.6996583938598633,-1.153925895690918
1764544917275362000,16.038362060546874,-0.25174012780189514,0.9348249435424805,-1.3134286403656006
1764544917292144400,16.055144287109375,-0.407134473323822,1.0195369720458984,-1.310225009918213
1764544917308906000,16.071906005859375,-0.4343698024749756,0.9782733917236328,-1.2050166130065918
1764544917325663200,16.088663330078123,-0.3340969383716583,0.8749294281005859,-0.9681580066680908
1764544917342428000,16.105427978515625,-0.2899850606918335,0.8584251403808594,-0.6639113426208496
1764544917359195000,16.12219482421875,-0.32072746753692627,0.8335113525390625,-0.383716344833374
1764544917375950000,16.1389501953125,-0.366348534822464,0.9006185531616211,-0.153839111328125
1764544917392714000,16.1557138671875,-0.39117950201034546,0.7286949157714844,-0.29306983947753906
1764544917409472500,16.172472412109375,-0.43796974420547485,0.9440650939941406,-0.009694576263427734
1764544917426233300,16.1892333984375,-0.5644323825836182,0.9334735870361328,-0.05886960029602051
1764544917442989600,16.205989501953123,-0.7405027151107788,0.8342828750610352,-0.06111001968383789
1764544917459763500,16.222763427734375,-0.8686846494674683,0.6135787963867188,-0.0833902359008789
1764544917476507400,16.23950732421875,-0.9151515960693359,0.6519842147827148,0.19393634796142578
1764544917493260500,16.256260498046874,-0.8436083197593689,0.8376741409301758,0.43926548957824707
1764544917510043400,16.27304345703125,-0.5969853401184082,0.7527093887329102,0.5717847347259521
1764544917526775800,16.28977587890625,-0.29549071192741394,0.5411520004272461,0.6426243782043457
1764544917543534000,16.3065341796875,-0.08781693875789642,0.16464996337890625,0.594689130783081
1764544917560299800,16.3232998046875,-0.14987491071224213,-0.0671548843383789,0.5914695262908936
1764544917577084700,16.340084716796873,-0.5299512147903442,-0.3832664489746094,0.5577173233032227
1764544917593801700,16.3568017578125,-1.151138186454773,-0.6629505157470703,0.5154690742492676
1764544917610574600,16.37357470703125,-1.6238622665405273,-0.9758720397949219,0.20910954475402832
1764544917627327200,16.3903271484375,-1.9055230617523193,-1.2855873107910156,-0.12002921104431152
1764544917644141600,16.4071416015625,-1.7055355310440063,-1.4435672760009766,-0.41158032417297363
1764544917660892700,16.423892578125,-1.4316701889038086,-1.4166755676269531,-0.7294063568115234
1764544917677617700,16.44061767578125,-1.2992630004882812,-1.2115774154663086,-0.9888904094696045
1764544917694422300,16.45742236328125,-1.1376820802688599,-1.149714469909668,-1.1278588771820068
1764544917711177000,16.474177001953127,-0.9551901817321777,-1.4350404739379883,-1.0769188404083252
1764544917727883300,16.49088330078125,-0.5627187490463257,-1.8883247375488281,-0.7252926826477051
1764544917744677600,16.507677734375,-0.002365618944168091,-2.199103355407715,-0.28229284286499023
1764544917761466400,16.52446630859375,0.41338613629341125,-2.0172348022460938,-0.060150861740112305
1764544917778186200,16.541186279296873,0.40234702825546265,-1.4691762924194336,0.1582326889038086
1764544917794992000,16.5579921875,0.1755770593881607,-0.8869657516479492,0.2663297653198242
1764544917811744500,16.57474462890625,-0.0872330367565155,-0.3233318328857422,0.19266319274902344
1764544917828474400,16.591474365234376,-0.22289098799228668,0.3222475051879883,-0.030559062957763672
1764544917845269500,16.60826953125,-0.06168922781944275,0.9437131881713867,-0.34464097023010254
1764544917862034400,16.625034423828126,0.1684672236442566,1.261404037475586,-0.6263282299041748
1764544917878756600,16.641756591796874,0.33289241790771484,1.4140424728393555,-0.8683817386627197
1764544917895552300,16.65855224609375,0.5233414173126221,1.47064208984375,-1.2109594345092773
1764544917912318500,16.675318359375,0.7702763676643372,1.3228588104248047,-1.4940011501312256
1764544917929040600,16.69204052734375,1.102894902229309,1.1212472915649414,-1.5999679565429688
1764544917945838600,16.708838623046876,1.4949650764465332,1.0013628005981445,-1.6792128086090088
1764544917962598700,16.7255986328125,1.7356117963790894,0.6751728057861328,-1.500898838043213
1764544917979328800,16.742328857421874,1.5746489763259888,0.007220268249511719,-0.8459522724151611
1764544917996101000,16.75910107421875,1.7793312072753906,-0.8369436264038086,-0.129685640335083
1764544918012880100,16.775880126953126,1.9883475303649902,-1.501418113708496,0.24628019332885742
1764544918029612000,16.792612060546876,2.011819839477539,-1.7702436447143555,0.5393350124359131
1764544918046408700,16.80940869140625,1.7511385679244995,-1.602015495300293,0.891345739364624
1764544918063163100,16.8261630859375,1.2519723176956177,-1.1894664764404297,0.9564962387084961
1764544918079946500,16.842946533203126,0.8116077780723572,-0.5486564636230469,0.6434023380279541
1764544918096680000,16.859679931640624,0.5016432404518127,0.1724567413330078,0.32984352111816406
1764544918113454000,16.8764541015625,0.15399247407913208,0.8294496536254883,-0.009772539138793945
1764544918130209000,16.893208984375,-0.22993722558021545,1.344400405883789,-0.3019568920135498
1764544918146964700,16.90996484375,-0.4521637558937073,1.7467551231384277,-0.4418492317199707
1764544918163736600,16.926736572265625,-0.4806113839149475,1.9322929382324219,-0.3947482109069824
1764544918180485000,16.943485107421875,-0.30957648158073425,1.7491021156311035,-0.021759748458862305
1764544918197242400,16.960242431640626,-0.11983078718185425,1.379486083984375,0.3589296340942383
1764544918214001400,16.97700146484375,-0.0953490138053894,0.9533343315124512,0.650026798248291
1764544918230751500,16.99375146484375,-0.09909498691558838,0.6144819259643555,0.8592162132263184
1764544918247558700,17.01055859375,-0.07198596000671387,0.3098278045654297,1.0260190963745117
1764544918264298800,17.027298828125,-0.07884323596954346,0.038822174072265625,1.1497371196746826
1764544918281038600,17.04403857421875,-0.216962993144989,-0.17796897888183594,1.168593406677246
1764544918297821400,17.060821533203125,-0.4566616117954254,-0.1608285903930664,0.9476397037506104
1764544918314583300,17.077583251953126,-0.6149274706840515,-0.1154336929321289,0.8421387672424316
1764544918331330800,17.094330810546875,-0.6953660249710083,0.10829734802246094,0.597358226776123
1764544918348097500,17.11109765625,-0.7178323864936829,0.3512554168701172,0.46074366569519043
1764544918364874800,17.127874755859374,-0.7215059995651245,0.5022573471069336,0.39446139335632324
1764544918381608200,17.144608154296876,-0.640664279460907,0.6587324142456055,0.42561769485473633
1764544918398385200,17.16138525390625,-0.5480341911315918,0.7687225341796875,0.6103010177612305
1764544918415155000,17.178155029296875,-0.41340041160583496,0.7954788208007812,0.7594718933105469
1764544918431886000,17.194885986328124,-0.3754030466079712,0.7348403930664062,0.7552716732025146
1764544918448667400,17.21166748046875,-0.36273425817489624,0.7033481597900391,0.8499763011932373
1764544918465440800,17.228440673828125,-0.3798567056655884,0.18367958068847656,1.6215670108795166
1764544918482170600,17.245170654296874,0.931561291217804,0.4082822799682617,0.1508181095123291
1764544918498956800,17.261956787109376,-0.812778890132904,0.41416358947753906,1.2481052875518799
1764544918515719000,17.278718994140625,-1.3831003904342651,0.20909881591796875,1.0260984897613525
1764544918532459500,17.29545947265625,0.09066110849380493,0.14728927612304688,1.291045904159546
1764544918549241600,17.31224169921875,0.4621296525001526,0.2871379852294922,1.2184858322143555
1764544918566002000,17.329001953125,0.44945454597473145,0.10461044311523438,1.4216153621673584
1764544918582790400,17.345790283203126,0.5073910355567932,0.034531593322753906,1.7675755023956299
1764544918599518700,17.362518798828123,0.7481884360313416,0.07775020599365234,1.5924572944641113
1764544918616292900,17.37929296875,0.8253657221794128,0.2422008514404297,1.2388849258422852
1764544918633055200,17.39605517578125,0.9268956184387207,-0.25031566619873047,0.6780786514282227
1764544918649802800,17.412802734375,0.8780254125595093,-0.6871662139892578,0.2107410430908203
1764544918666576400,17.429576416015625,0.4434499740600586,-0.7304468154907227,0.009230375289916992
1764544918683330600,17.44633056640625,-0.16506999731063843,-1.2010259628295898,-0.38210153579711914
1764544918700092400,17.463092529296876,-0.3838212490081787,-1.9688520431518555,-0.6575539112091064
1764544918716854500,17.4798544921875,-0.06731528043746948,-1.8685979843139648,-1.238391637802124
1764544918733614300,17.4966142578125,0.03056931495666504,-2.2300901412963867,-0.6150574684143066
1764544918750370300,17.513370361328125,0.5631017684936523,-1.8276262283325195,-0.5214877128601074
1764544918767144000,17.53014404296875,0.8419421911239624,-1.3691768646240234,-0.4009530544281006
1764544918783873500,17.54687353515625,0.7476269602775574,-0.7492876052856445,-0.7724156379699707
1764544918800660000,17.563659912109376,0.5591245889663696,0.06743335723876953,-1.4621069431304932
1764544918817408000,17.580407958984374,-0.04987442493438721,0.13551044464111328,-1.6902711391448975
1764544918834157300,17.5971572265625,-0.07867825031280518,1.3511953353881836,-1.867655634880066
1764544918850938600,17.613938720703125,-0.6539890170097351,1.25816011428833,-2.3726584911346436
1764544918867710700,17.630710693359376,-0.9395323991775513,1.3635449409484863,-2.0464649200439453
1764544918884421600,17.647421630859377,-0.8630573153495789,1.0666084289550781,-1.8888895511627197
1764544918901228000,17.66422802734375,-1.0908379554748535,-0.08428287506103516,-1.496506929397583
1764544918917989400,17.6809892578125,-0.5114275217056274,-0.9997968673706055,-0.9807090759277344
1764544918934741500,17.697741455078123,-0.00021263957023620605,-1.5892276763916016,-0.6429493427276611
1764544918951512600,17.7145126953125,0.20688369870185852,-2.2204208374023438,-0.4345860481262207
1764544918968273200,17.731273193359375,0.35262060165405273,-1.9606876373291016,-0.5421297550201416
1764544918985012200,17.74801220703125,0.5065733194351196,-1.3734521865844727,-0.1666240692138672
1764544919001795800,17.7647958984375,0.4846489429473877,-0.7464809417724609,-0.3510172367095947
1764544919018557400,17.781557373046876,0.19849622249603271,-0.22750377655029297,-0.7886455059051514
1764544919035317800,17.79831787109375,-0.2136724293231964,0.09068679809570312,-1.3047757148742676
1764544919052080400,17.815080322265626,-0.5992777943611145,0.25775718688964844,-2.1880221366882324
1764544919068815400,17.8318154296875,-0.5755423903465271,0.47139453887939453,-2.326098918914795
1764544919085577200,17.8485771484375,-0.534633219242096,0.3767433166503906,-2.2688794136047363
1764544919102363600,17.86536376953125,-0.3195541203022003,0.2820730209350586,-2.2852413654327393
1764544919119125200,17.882125244140624,0.05532779544591904,0.45911216735839844,-2.0788753032684326
1764544919135860700,17.89886083984375,-0.07979528605937958,0.5099992752075195,-1.4637746810913086
1764544919152647700,17.915647705078126,-0.31927621364593506,0.6783075332641602,-0.6915714740753174
1764544919169409300,17.9324091796875,-0.6860682964324951,0.6902408599853516,-0.11429953575134277
1764544919186144500,17.94914453125,-0.7787168025970459,0.5676507949829102,0.11383724212646484
1764544919202931700,17.965931640625,-0.659003496170044,0.5726385116577148,0.28685474395751953
1764544919219693000,17.982693115234376,-0.5458813905715942,0.5306844711303711,0.08840417861938477
1764544919236428300,17.99942822265625,-0.5131480097770691,0.4020090103149414,-0.13533759117126465
1764544919253216000,18.016216064453126,-0.4954773783683777,0.2574777603149414,-0.3482694625854492
1764544919269970400,18.032970458984376,-0.6036381721496582,0.2963542938232422,-0.4021449089050293
1764544919286720000,18.049719970703126,-0.8518427014350891,0.23649978637695312,-0.2677583694458008
1764544919303499500,18.06649951171875,-0.9284310936927795,0.23674964904785156,-0.09042024612426758
1764544919320269800,18.083269775390626,-0.9130321741104126,0.2562379837036133,0.009353876113891602
1764544919336997000,18.0999970703125,-0.7577700614929199,0.2118968963623047,0.13429546356201172
1764544919353770500,18.1167705078125,-0.48372334241867065,-0.193359375,0.35967278480529785
1764544919370544600,18.133544677734374,-0.32732656598091125,0.27823829650878906,0.3488321304321289
1764544919387315500,18.1503154296875,-0.6088539361953735,0.020162582397460938,0.3310818672180176
1764544919404072000,18.167072021484376,-1.0984368324279785,-0.07247543334960938,0.2595634460449219
1764544919420829200,18.1838291015625,-1.5492702722549438,-0.33513450622558594,-0.07217788696289062
1764544919437569300,18.2005693359375,-1.9629875421524048,-0.8919363021850586,-0.2129838466644287
1764544919454352000,18.217351806640625,-1.7418220043182373,-1.1527395248413086,-0.27312684059143066
1764544919471112200,18.2341123046875,-1.2900558710098267,-1.3493947982788086,-0.3162875175476074
1764544919487866000,18.2508662109375,-1.0433977842330933,-1.2517099380493164,-0.4235715866088867
1764544919504635100,18.26763525390625,-0.7748880982398987,-1.3298397064208984,-0.5963246822357178
1764544919521397000,18.28439697265625,-0.528732419013977,-1.6368980407714844,-0.7192196846008301
1764544919538148400,18.3011484375,-0.07716935127973557,-2.1244306564331055,-0.49306273460388184
1764544919554919700,18.317919677734373,0.5759950876235962,-2.4764699935913086,-0.33580994606018066
1764544919571674400,18.33467431640625,1.0036588907241821,-2.0852556228637695,-0.28429627418518066
1764544919588441300,18.35144140625,1.2098047733306885,-1.3541278839111328,-0.37392568588256836
1764544919605203200,18.368203125,1.0752259492874146,-0.6086883544921875,-0.39858007431030273
1764544919621964500,18.384964599609376,0.5220864415168762,-0.40941715240478516,-0.2806980609893799
1764544919638718700,18.40171875,0.14895355701446533,-0.16530609130859375,-0.4210338592529297
1764544919655493600,18.41849365234375,0.10528172552585602,0.1181802749633789,-0.6675536632537842
1764544919672248000,18.435248046875,0.3233316242694855,0.6875362396240234,-1.2210800647735596
1764544919689009200,18.452009033203126,0.622533917427063,1.188525676727295,-1.7132363319396973
1764544919705770500,18.4687705078125,0.7348494529724121,1.5051026344299316,-2.0177974700927734
1764544919722531600,18.485531494140623,0.941082239151001,1.634143352508545,-2.073341131210327
1764544919739293700,18.502293701171876,1.0870869159698486,1.8834648132324219,-1.8104932308197021
1764544919756055000,18.519054931640625,0.9728703498840332,1.6967263221740723,-1.5800533294677734
1764544919772813600,18.5358134765625,1.4545762538909912,1.0526394844055176,-0.9400343894958496
1764544919789541600,18.552541748046874,1.8192646503448486,0.23174381256103516,-0.31491994857788086
1764544919806338800,18.5693388671875,1.8889691829681396,-0.38861083984375,0.47146081924438477
1764544919823083000,18.5860830078125,2.0195295810699463,-0.9239320755004883,0.6977081298828125
1764544919839839500,18.602839599609375,1.8804173469543457,-1.23040771484375,0.5887422561645508
1764544919856624000,18.6196240234375,1.5999772548675537,-1.4842548370361328,0.3663058280944824
1764544919873384000,18.636384033203125,1.0930821895599365,-1.3786659240722656,0.13911056518554688
1764544919890134500,18.653134521484375,0.6207160949707031,-1.145578384399414,-0.19685745239257812
1764544919906903800,18.66990380859375,0.08212888240814209,-0.8054943084716797,-0.46039390563964844
1764544919923668200,18.686668212890623,-0.2703687846660614,-0.07627677917480469,-0.7068519592285156
1764544919940392700,18.703392822265624,-0.5644463896751404,0.4889545440673828,-0.8607292175292969
1764544919957190400,18.7201904296875,-0.5740469694137573,1.278864860534668,-0.984039306640625
1764544919973926400,18.736926513671875,-0.30928340554237366,1.5250458717346191,-1.2674272060394287
1764544919990672400,18.75367236328125,-0.21260356903076172,0.957453727722168,-0.7936956882476807
1764544920007473700,18.7704736328125,-0.06159472465515137,0.965904712677002,-0.6371839046478271
1764544920024236500,18.787236572265623,0.06697708368301392,0.6068954467773438,-0.3237450122833252
1764544920040951600,18.80395166015625,0.12497085332870483,0.41192626953125,-0.043766021728515625
1764544920057758500,18.820758544921876,0.04137539863586426,-0.02154064178466797,0.2678871154785156
1764544920074518800,18.837518798828125,-0.1202813982963562,-0.431182861328125,0.646733283996582
1764544920091264000,18.854263916015626,-0.2809854745864868,-0.618072509765625,0.8311338424682617
1764544920108041700,18.871041748046874,-0.5109140872955322,-0.8548908233642578,0.9110169410705566
1764544920124804000,18.88780419921875,-0.5262490510940552,-0.9039726257324219,0.9349150657653809
1764544920141532000,18.904531982421876,-0.2751190662384033,-0.8203163146972656,0.6099576950073242
1764544920158335000,18.9213349609375,-0.12946146726608276,-0.6186809539794922,0.24505853652954102
1764544920175087600,18.938087646484377,-0.11106991767883301,-0.3459587097167969,-0.10394525527954102
1764544920191820300,18.9548203125,-0.17930632829666138,-0.1817760467529297,-0.4477827548980713
1764544920208610000,18.971610107421874,-0.39056193828582764,0.09062957763671875,-0.5219638347625732
1764544920225372200,18.9883720703125,-0.6801306009292603,0.6341056823730469,-0.39473700523376465
1764544920242097700,19.00509765625,-0.7023439407348633,0.7114582061767578,-0.23593473434448242
1764544920258894800,19.021894775390624,-0.4978475868701935,0.4021930694580078,-0.2994246482849121
1764544920275655200,19.0386552734375,-0.38526564836502075,0.5543327331542969,-0.22976088523864746
1764544920292408600,19.05540869140625,-0.27645641565322876,0.352813720703125,-0.21712350845336914
1764544920309178000,19.07217822265625,-0.23270553350448608,0.3571357727050781,-0.08600711822509766
1764544920325914000,19.0889140625,-0.28245121240615845,0.4124031066894531,0.19684076309204102
1764544920342656500,19.105656494140625,-0.4043257236480713,0.23165225982666016,0.5523269176483154
1764544920359456300,19.122456298828126,-0.34662896394729614,0.5354042053222656,0.8839011192321777
1764544920376229400,19.1392294921875,-0.26925408840179443,0.34795284271240234,1.082538366317749
1764544920392983000,19.155983154296877,0.06413781642913818,0.2835569381713867,1.229616641998291
1764544920409747200,19.172747314453126,0.2067497968673706,0.3130979537963867,1.1351697444915771
1764544920426514200,19.18951416015625,0.2812933921813965,0.28158092498779297,1.0055193901062012
1764544920443266600,19.2062666015625,0.3212183713912964,0.13768768310546875,0.6913831233978271
1764544920460030500,19.223030517578124,0.26298582553863525,-0.0317840576171875,0.5323004722595215
1764544920476788200,19.239788330078124,0.4189004898071289,-0.29938220977783203,0.4102463722229004
1764544920493525200,19.256525146484375,0.48917829990386963,-0.7028589248657227,0.51544189453125
1764544920510314000,19.27331396484375,0.2765839099884033,-1.0912485122680664,0.485457181930542
1764544920527075300,19.290075439453126,-0.015413403511047363,-1.3319196701049805,0.27884364128112793
1764544920543804700,19.3068046875,-0.17284250259399414,-1.345449447631836,0.0042645931243896484
1764544920560596700,19.3235966796875,-0.13457882404327393,-1.1387481689453125,-0.161574125289917
1764544920577341000,19.3403408203125,-0.0593184232711792,-0.7962245941162109,-0.2229626178741455
1764544920594102300,19.357102294921877,-0.01970970630645752,-0.33902454376220703,-0.103302001953125
1764544920610882000,19.373882080078126,-0.056337833404541016,0.21158313751220703,0.07019400596618652
1764544920627643100,19.39064306640625,-0.29300475120544434,0.6668872833251953,0.029638051986694336
1764544920644363800,19.40736376953125,-0.5962013006210327,1.0547537803649902,-0.20028400421142578
1764544920661172700,19.4241728515625,-0.6702848076820374,1.2203621864318848,-0.440582275390625
1764544920677926700,19.4409267578125,-0.4512801170349121,1.1315960884094238,-0.6091043949127197
1764544920694653700,19.45765380859375,-0.14788198471069336,0.8826770782470703,-0.7114052772521973
1764544920711449900,19.474449951171874,-0.0038243532180786133,0.5243034362792969,-0.888157844543457
1764544920728211200,19.491211181640626,-0.05469560623168945,0.19548416137695312,-1.2980222702026367
1764544920744940000,19.50793994140625,-0.14092671871185303,-0.20717334747314453,-1.5207973718643188
1764544920761709000,19.524708984375,-0.08551371097564697,-0.6065082550048828,-1.228188395500183
1764544920778469400,19.541469482421874,-0.03827619552612305,-0.9002628326416016,-1.1556061506271362
1764544920795228200,19.558228271484374,-0.07169413566589355,-1.5308418273925781,-1.0598267316818237
1764544920812006400,19.57500634765625,-0.04331552982330322,-1.6486425399780273,-1.0741220712661743
1764544920828740600,19.59174072265625,-0.0328061580657959,-1.4141902923583984,-1.0908453464508057
1764544920845529000,19.608529052734376,-0.19636666774749756,-1.0388317108154297,-0.8932099342346191
1764544920862277000,19.625277099609374,-0.34088581800460815,-0.6742238998413086,-0.48209047317504883
1764544920879023000,19.642023193359375,-0.17735248804092407,-0.3370685577392578,0.035429954528808594
1764544920895802400,19.65880224609375,0.1745738983154297,-0.050545692443847656,0.5660905838012695
1764544920912574700,19.67557470703125,0.4929710030555725,0.0076885223388671875,0.881176233291626
1764544920929335300,19.692335205078123,0.662044107913971,-0.2619771957397461,0.9241886138916016
1764544920946082800,19.709082763671876,0.714087188243866,-0.5506839752197266,0.5540022850036621
1764544920962870500,19.72587060546875,0.45829862356185913,-0.5290727615356445,0.008888006210327148
1764544920979631600,19.742631591796876,0.06538712978363037,-0.23933887481689453,-0.6213696002960205
1764544920996384500,19.759384521484375,-0.3920246362686157,0.056649208068847656,-1.1122570037841797
1764544921013147400,19.7761474609375,-0.7516565918922424,0.32198143005371094,-1.4867721796035767
1764544921029916200,19.792916259765626,-0.9838005304336548,0.4963245391845703,-1.5586472749710083
1764544921046674200,19.809674072265626,-1.0917915105819702,0.563511848449707,-1.3135355710983276
1764544921063438600,19.8264384765625,-0.9986867308616638,0.45433712005615234,-1.0683698654174805
1764544921080199200,19.84319921875,-0.7574166655540466,0.4957876205444336,-0.7775921821594238
1764544921096962600,19.859962646484377,-0.47204089164733887,0.4639244079589844,-0.4751288890838623
1764544921113702100,19.8767021484375,-0.2245052456855774,0.4350461959838867,-0.0486907958984375
1764544921130484000,19.89348388671875,-0.09168922901153564,0.2801952362060547,0.25592041015625
1764544921147244500,19.91024462890625,0.012470722198486328,0.0970163345336914,0.5789155960083008
1764544921164006400,19.92700634765625,0.07286268472671509,0.2417278289794922,0.656151533126831
1764544921180767200,19.943767333984376,-0.03236249089241028,0.26654911041259766,0.5475583076477051
1764544921197487000,19.960487060546875,-0.3727160692214966,0.4894704818725586,0.37721872329711914
1764544921214290200,19.977290283203125,-0.7105211615562439,0.6913414001464844,0.061238765716552734
1764544921231051800,19.9940517578125,-0.8638216257095337,0.7018337249755859,-0.08184170722961426
1764544921247793000,20.01079296875,-0.9650496244430542,0.7163248062133789,-0.1295490264892578
1764544921264574700,20.02757470703125,-1.005861520767212,0.6727790832519531,-0.13099169731140137
1764544921281335600,20.04433544921875,-1.1375501155853271,0.5801591873168945,-0.058069467544555664
1764544921298057500,20.061057373046875,-1.1782585382461548,0.4393310546875,0.1007697582244873
1764544921314854000,20.07785400390625,-1.016411304473877,0.3136758804321289,0.19011712074279785
1764544921331598300,20.094598388671876,-0.7634928226470947,0.1370410919189453,0.22095203399658203
1764544921348360000,20.11135986328125,-0.48115307092666626,-0.013958930969238281,0.2772822380065918
1764544921365116400,20.128116455078125,-0.32165074348449707,-0.12932109832763672,0.30034756660461426
1764544921381903600,20.144903564453124,-0.5709476470947266,-0.1619405746459961,0.2870655059814453
1764544921398639000,20.16163916015625,-1.0685148239135742,-0.16461563110351562,0.23195290565490723
1764544921415425800,20.17842578125,-1.4023990631103516,-0.3086423873901367,0.05677437782287598
1764544921432188200,20.195188232421874,-1.668180227279663,-0.6426162719726562,0.06827187538146973
1764544921448922600,20.211922607421876,-1.4424574375152588,-1.011948585510254,0.2607004642486572
1764544921465710600,20.228710693359375,-1.2197961807250977,-0.8225002288818359,0.1361861228942871
1764544921482472700,20.24547265625,-1.1237715482711792,-0.7215003967285156,0.06847476959228516
1764544921499206000,20.262205810546874,-1.0169720649719238,-0.6667642593383789,-0.048856258392333984
1764544921515994400,20.278994384765625,-0.8563019037246704,-0.8274412155151367,-0.0412750244140625
1764544921532755700,20.295755615234373,-0.5737175941467285,-1.29351806640625,0.10271573066711426
1764544921549496300,20.312496337890625,-0.24345716834068298,-1.2361230850219727,0.18754911422729492
1764544921566280400,20.329280517578123,-0.0518878698348999,-1.0006437301635742,0.13021135330200195
1764544921583033300,20.346033447265626,-0.05552709102630615,-0.6081209182739258,-0.036776065826416016
1764544921599775000,20.36277490234375,-0.2600672245025635,-0.3702058792114258,-0.1137089729309082
1764544921616539600,20.37953955078125,-0.4899187684059143,-0.20079421997070312,-0.08063960075378418
1764544921633323800,20.39632373046875,-0.6243293881416321,-0.023260116577148438,0.03144216537475586
1764544921650058800,20.413058837890624,-0.6816741824150085,-0.07793998718261719,0.15627574920654297
1764544921666846700,20.4298466796875,-0.514272928237915,0.23430442810058594,0.0801849365234375
1764544921683597000,20.44659716796875,-0.216054767370224,0.37643909454345703,0.0681910514831543
1764544921700353500,20.463353515625,0.024374186992645264,0.5300264358520508,0.020996570587158203
1764544921717130500,20.480130615234376,0.1714155077934265,0.5612154006958008,-0.051122426986694336
1764544921733878000,20.4968779296875,0.34480756521224976,0.46582508087158203,-0.19230413436889648
1764544921750633200,20.51363330078125,0.44472813606262207,0.2674427032470703,-0.32557106018066406
1764544921767414800,20.530414794921874,0.516840398311615,0.06318950653076172,-0.5687570571899414
1764544921784175600,20.547175537109375,0.8617151975631714,0.07188892364501953,-0.7366623878479004
1764544921800911000,20.5639111328125,0.7374472618103027,-0.06971931457519531,-0.7054688930511475
1764544921817698600,20.580698486328124,0.8166006207466125,-0.04170989990234375,-0.7643487453460693
1764544921834419000,20.5974189453125,0.7994638681411743,0.0636129379272461,-0.8565338850021362
1764544921851195000,20.61419482421875,0.873733401298523,0.22034835815429688,-0.8064792156219482
1764544921867982000,20.630982177734374,1.0301692485809326,0.37221336364746094,-0.559009313583374
1764544921884743700,20.64774365234375,1.140180230140686,0.3991870880126953,-0.24359655380249023
1764544921901479200,20.664479248046874,1.0764185190200806,0.3374910354614258,0.04418444633483887
1764544921918266400,20.681266357421876,0.9291033744812012,0.13326549530029297,0.2463986873626709
1764544921935022600,20.698022705078124,0.8658063411712646,-0.07313251495361328,0.4139854907989502
1764544921951768600,20.7147685546875,0.8574175834655762,-0.21267032623291016,0.48836612701416016
1764544921968550400,20.73155029296875,0.7868326902389526,-0.36725807189941406,0.39431309700012207
1764544921985305600,20.7483056640625,0.512021541595459,-0.38628673553466797,0.3086674213409424
1764544922002077200,20.7650771484375,0.09311830997467041,-0.2855052947998047,0.2710227966308594
1764544922018834400,20.78183447265625,-0.16122710704803467,-0.055545806884765625,0.17659354209899902
1764544922035596500,20.798596435546877,-0.22037136554718018,0.3170146942138672,0.08669495582580566
1764544922052346000,20.81534619140625,-0.1874457597732544,0.6358375549316406,0.006177425384521484
1764544922069119000,20.832118896484374,-0.058575987815856934,0.8384189605712891,-0.003833293914794922
1764544922085854000,20.84885400390625,0.11044394969940186,0.9811296463012695,0.09728455543518066
1764544922102624500,20.86562451171875,0.16014862060546875,0.8730173110961914,0.11744952201843262
1764544922119391700,20.882391845703125,0.1167757511138916,0.7324314117431641,0.35415196418762207
1764544922136164600,20.89916455078125,-0.06038987636566162,0.5955781936645508,0.5228385925292969
1764544922152899800,20.91589990234375,-0.26021695137023926,0.39273548126220703,0.6346728801727295
1764544922169681200,20.93268115234375,-0.49363863468170166,0.22774410247802734,0.7594907283782959
1764544922186453800,20.949453857421876,-0.5949738025665283,0.1342945098876953,0.9262466430664062
1764544922203183600,20.96618359375,-0.6087210774421692,0.10581493377685547,0.9899032115936279
1764544922219970300,20.98297021484375,-0.5453182458877563,0.09441471099853516,0.9234375953674316
1764544922236732700,20.999732666015625,-0.5009830594062805,0.10731029510498047,0.7867710590362549
