time,seconds_elapsed,z,y,x
1764544901411153400,0.1741533203125,8.927022933959961,4.5236310958862305,-0.5162515044212341
1764544901428250400,0.19125048828125,9.475577354431152,4.098307132720947,-0.6364908218383789
1764544901445331700,0.208331787109375,10.37348461151123,4.641477584838867,-0.3523431420326233
1764544901462427100,0.22542724609375,10.131211280822754,4.576871395111084,-0.251844584941864
1764544901479534600,0.24253466796875,9.130413055419922,4.782654285430908,0.3355933725833893
1764544901496641000,0.25964111328125,8.127222061157227,4.895116806030273,-0.5527420043945312
1764544901513754000,0.276754150390625,8.234899520874023,5.247459888458252,-0.5838487148284912
1764544901530839600,0.293839599609375,8.637491226196289,5.097310543060303,-0.9038887619972229
1764544901547946500,0.310946533203125,8.868997573852539,4.750949382781982,-0.5551348328590393
1764544901565043200,0.328043212890625,8.706883430480957,4.359723091125488,-0.4384847581386566
1764544901582128000,0.345128173828125,8.84805965423584,4.514060020446777,-0.34995031356811523
1764544901599235800,0.36223583984375,8.74636459350586,4.7030930519104,-0.8949156403541565
1764544901616331300,0.379331298828125,8.581260681152344,4.728217601776123,-1.0259226560592651
1764544901633428700,0.3964287109375,8.455039024353027,4.6438703536987305,-0.8045865893363953
1764544901650518800,0.413518798828125,8.097909927368164,4.585246562957764,-0.47976094484329224
1764544901667603200,0.430603271484375,8.313263893127441,4.101297855377197,-0.05922235921025276
1764544901684711200,0.447711181640625,9.357730865478516,3.9050865173339844,0.6382854580879211
1764544901701812000,0.46481201171875,9.698110580444336,3.813561201095581,0.6125625967979431
1764544901718910500,0.481910400390625,9.239884376525879,3.8321053981781006,1.2352946996688843
1764544901735993600,0.49899365234375,8.401798248291016,3.802793502807617,1.0606186389923096
1764544901753103400,0.516103271484375,7.931010723114014,4.2209391593933105,0.6071787476539612
1764544901770188500,0.5331884765625,8.23011302947998,4.441677093505859,0.4582255482673645
1764544901787278800,0.55027880859375,8.677571296691895,4.84606409072876,-0.22492532432079315
1764544901804392000,0.567391845703125,8.908478736877441,5.111667156219482,-0.5964110493659973
1764544901821475600,0.5844755859375,9.267401695251465,5.477769374847412,-0.8333004713058472
1764544901838578700,0.60157861328125,8.755337715148926,5.794219970703125,-0.37447673082351685
1764544901855676200,0.61867626953125,8.005785942077637,4.7575297355651855,0.8297112584114075
1764544901872778000,0.635778076171875,7.63609504699707,3.871587038040161,1.8077775239944458
1764544901889864400,0.652864501953125,8.61057186126709,3.903291940689087,1.5278172492980957
1764544901906972200,0.66997216796875,10.049257278442383,3.955335855484009,1.5649060010910034
1764544901924044800,0.687044921875,10.96750259399414,3.4576287269592285,1.9728822708129883
1764544901941156600,0.704156494140625,10.308279991149902,4.087539196014404,1.2496516704559326
1764544901958260200,0.72126025390625,9.68494987487793,3.43190598487854,1.7371892929077148
1764544901975349500,0.738349609375,9.746564865112305,2.6117658615112305,2.6596224308013916
1764544901992445400,0.755445556640625,9.932008743286133,1.9124635457992554,2.9246275424957275
1764544902009548800,0.772548828125,10.277173042297363,1.5242279767990112,3.2997024059295654
1764544902026640100,0.78964013671875,10.013364791870117,1.1365907192230225,3.803989887237549
1764544902043729000,0.80672900390625,9.293723106384277,0.5048855543136597,3.955335855484009
1764544902060838100,0.823838134765625,8.316853523254395,0.32123643159866333,4.211368083953857
1764544902077927700,0.840927734375,7.688737392425537,0.7316055297851562,3.893122434616089
1764544902095024000,0.858024169921875,7.915457248687744,2.121237277984619,2.7014968395233154
1764544902112122600,0.87512255859375,8.042875289916992,2.245664119720459,2.6123640537261963
1764544902129214700,0.892214599609375,8.456833839416504,2.2534406185150146,2.83669114112854
1764544902146299000,0.909298828125,9.284152030944824,2.4370899200439453,1.1653046607971191
1764544902163416300,0.926416259765625,10.430314064025879,1.8771693706512451,0.16809579730033875
1764544902180512300,0.94351220703125,10.715060234069824,2.4705893993377686,0.8195417523384094
1764544902197609700,0.960609619140625,9.927821159362793,2.7535407543182373,1.191625714302063
1764544902223271000,0.98627099609375,9.830911636352539,2.991028308868408,1.6414763927459717
1764544902240381000,1.003380859375,9.534799575805664,2.8971099853515625,1.8741782903671265
1764544902257346600,1.0203466796875,9.41037368774414,2.534597396850586,1.1958130598068237
1764544902274126800,1.037126953125,9.43310546875,2.695514678955078,1.2299108505249023
1764544902290870000,1.0538701171875,9.259027481079102,2.923431158065796,1.7132610082626343
1764544902307650600,1.070650634765625,9.152546882629395,2.5669004917144775,1.8963119983673096
1764544902324417500,1.08741748046875,9.54078197479248,2.410170555114746,2.761317253112793
1764544902341148000,1.10414794921875,8.968897819519043,2.3611178398132324,2.719442844390869
1764544902357916000,1.120916015625,8.824729919433594,2.331207513809204,2.8600213527679443
1764544902374699800,1.13769970703125,8.791230201721191,1.731805443763733,3.524627685546875
1764544902391432200,1.15443212890625,8.634500503540039,1.695314884185791,3.6442689895629883
1764544902408191700,1.171191650390625,8.82532787322998,2.0608184337615967,3.3409786224365234
1764544902424981000,1.18798095703125,8.731410026550293,2.455035924911499,3.067000389099121
1764544902441717200,1.20471728515625,8.349754333496094,4.553541660308838,3.3206396102905273
1764544902458478300,1.221478271484375,7.171289443969727,7.2921271324157715,-1.8299111127853394
1764544902475239000,1.238239013671875,7.668398380279541,7.396214962005615,1.444068431854248
1764544902492003800,1.25500390625,8.86780071258545,3.5192439556121826,2.200200319290161
1764544902508790800,1.271790771484375,9.809974670410156,4.374079704284668,2.32761812210083
1764544902525544700,1.288544677734375,8.591429710388184,4.459623336791992,2.517249345779419
1764544902542298000,1.305298095703125,7.916055679321289,5.365904808044434,1.9142581224441528
1764544902559073000,1.322072998046875,8.156534194946289,6.165107727050781,1.0259226560592651
1764544902575828500,1.338828369140625,8.979066848754883,4.61276388168335,2.3706889152526855
1764544902592596200,1.35559619140625,9.567103385925293,4.549354076385498,2.5052852630615234
1764544902609328000,1.372328125,8.408976554870605,5.147559642791748,2.2372891902923584
1764544902626115600,1.389115478515625,6.61794900894165,5.779862880706787,1.5672988891601562
1764544902642873300,1.405873291015625,6.317051887512207,5.770890235900879,1.5595221519470215
1764544902659640300,1.422640380859375,7.527820110321045,5.284548759460449,1.812563180923462
1764544902676373200,1.439373291015625,8.09970474243164,5.236692428588867,1.856830358505249
1764544902693134600,1.456134521484375,8.137392044067383,5.251647472381592,1.6510475873947144
1764544902709921500,1.472921630859375,7.5463643074035645,5.309673309326172,1.688734531402588
1764544902726654000,1.489654052734375,9.192028045654297,5.450850009918213,2.417349100112915
1764544902743418000,1.506418212890625,11.029117584228516,4.991427898406982,3.3948171138763428
1764544902760207600,1.52320751953125,9.632308006286621,4.331607341766357,2.3778674602508545
1764544902776963000,1.539963134765625,8.669196128845215,3.541975736618042,3.171088218688965
1764544902793708300,1.556708251953125,7.906484127044678,2.736790895462036,3.401397466659546
1764544902810462500,1.57346240234375,7.410571575164795,2.1439690589904785,3.84765887260437
1764544902827249400,1.59024951171875,9.434301376342773,2.132603168487549,3.002394199371338
1764544902843979500,1.6069794921875,10.112068176269531,1.4021940231323242,3.696911096572876
1764544902860776200,1.623776123046875,9.117850303649902,1.430309772491455,6.320042610168457
1764544902877491200,1.6404912109375,8.48734188079834,1.659422516822815,7.069594383239746
1764544902894274300,1.6572744140625,7.406982421875,1.3615161180496216,5.408975601196289
1764544902911052800,1.674052734375,6.527021884918213,0.4654040038585663,3.5054850578308105
1764544902927815200,1.690815185546875,5.763711452484131,0.11904292553663254,2.62313175201416
1764544902944555000,1.707554931640625,3.9906299114227295,1.2394821643829346,2.7212376594543457
1764544902961315600,1.724315673828125,4.370490550994873,1.9860427379608154,3.7423746585845947
1764544902978101000,1.74110107421875,5.045266628265381,2.1337995529174805,4.963312149047852
1764544902994832100,1.75783203125,6.8004021644592285,1.212562918663025,4.730610370635986
1764544903011609300,1.774609375,6.658029079437256,0.9433703422546387,4.654638290405273
1764544903028348200,1.79134814453125,5.061418056488037,1.4979069232940674,4.295116424560547
1764544903045121500,1.80812158203125,4.954339504241943,2.4717857837677,4.898108005523682
1764544903061905400,1.824905517578125,6.656234264373779,2.706880569458008,5.268397331237793
1764544903078666500,1.84166650390625,7.69830846786499,1.975873351097107,5.009374141693115
1764544903095403300,1.8584033203125,6.602993965148926,1.1174482107162476,5.3593244552612305
1764544903112178400,1.875178466796875,4.535595417022705,1.2580264806747437,6.009573936462402
1764544903128956000,1.891955810546875,3.7226338386535645,2.149951219558716,7.927421569824219
1764544903145680000,1.908679931640625,4.0803608894348145,4.399204254150391,8.213961601257324
1764544903162475300,1.925475341796875,5.406582832336426,4.901697158813477,8.102097511291504
1764544903179233800,1.94223388671875,8.207980155944824,3.700500249862671,9.732806205749512
1764544903195972600,1.95897265625,10.453643798828125,3.6957144737243652,12.220145225524902
1764544903212729900,1.975729736328125,10.319645881652832,4.706682205200195,14.376078605651855
1764544903229520600,1.992520751953125,9.497113227844238,5.610570907592773,15.448660850524902
1764544903246259000,2.009259033203125,9.696913719177246,6.067001819610596,15.388242721557617
1764544903263039500,2.02603955078125,10.911869049072266,5.260620594024658,14.360525131225586
1764544903279800300,2.04280029296875,11.524432182312012,4.030709743499756,13.630115509033203
1764544903296533000,2.059532958984375,10.537392616271973,3.180659532546997,13.24547004699707
1764544903313320700,2.07632080078125,9.177671432495117,2.7248268127441406,12.011371612548828
1764544903330086000,2.0930859375,8.000402450561523,2.2205393314361572,9.723833084106445
1764544903346817000,2.109817138671875,6.745965003967285,1.5499508380889893,8.179265975952148
1764544903363608000,2.126608154296875,6.314060688018799,1.2885349988937378,7.231110095977783
1764544903380363000,2.143363037109375,6.419344902038574,0.8165507316589355,6.417550563812256
1764544903397102800,2.160102783203125,6.7040910720825195,0.7304090857505798,5.831308841705322
1764544903413887000,2.176886962890625,8.433503150939941,0.8033902049064636,4.806582450866699
1764544903430654500,2.193654541015625,9.273384094238281,0.12323036789894104,3.5431721210479736
1764544903447386000,2.21038623046875,8.706883430480957,0.40259242057800293,1.9525432586669922
1764544903464167000,2.2271669921875,6.792625427246094,1.8059829473495483,1.3495519161224365
1764544903480905700,2.24390576171875,6.85962438583374,1.9010975360870361,1.7132610082626343
1764544903497668900,2.2606689453125,7.856235027313232,2.146361827850342,2.237887382507324
1764544903514456000,2.2774560546875,8.590831756591797,2.073979139328003,2.1655044555664062
1764544903531191000,2.29419091796875,9.077771186828613,1.6085749864578247,1.8305093050003052
1764544903547953400,2.310953369140625,9.373284339904785,1.25144624710083,1.350150227546692
1764544903564739800,2.32773974609375,9.171091079711914,1.1868400573730469,1.0516455173492432
1764544903581493200,2.3444931640625,8.806185722351074,1.4715858697891235,0.7016952633857727
1764544903598237000,2.36123681640625,8.35872745513916,1.495514154434204,0.8524430394172668
1764544903615018200,2.378018310546875,7.41416072845459,2.1170499324798584,0.900897741317749
1764544903631763200,2.39476318359375,7.798807144165039,2.0985054969787598,1.7988044023513794
1764544903648533500,2.411533447265625,7.64028263092041,2.86061954498291,2.449054002761841
1764544903665306600,2.428306640625,6.584449768066406,3.380460262298584,2.7014968395233154
1764544903682029800,2.44502978515625,5.164309501647949,3.8937206268310547,2.368894338607788
1764544903698803700,2.4618037109375,6.329015731811523,3.060420274734497,1.9663020372390747
1764544903715590100,2.478590087890625,8.313263893127441,2.297109842300415,2.685943365097046
1764544903732350200,2.49535009765625,9.390034675598145,2.8833513259887695,1.5912270545959473
1764544903749088500,2.512088623046875,8.695517539978027,3.157329559326172,0.8793623447418213
1764544903765870000,2.5288701171875,8.134400367736816,3.5611183643341064,0.9750752449035645
1764544903782637000,2.545636962890625,8.726025581359863,3.4821550846099854,1.5032907724380493
1764544903799371300,2.562371337890625,8.749356269836426,3.64127779006958,1.6396816968917847
1764544903816128500,2.57912841796875,7.04925537109375,4.079164505004883,2.3503501415252686
1764544903832921600,2.595921630859375,5.907878875732422,4.532604217529297,3.1968109607696533
1764544903849654300,2.612654296875,5.088337421417236,4.71445894241333,3.1310083866119385
1764544903866440200,2.629440185546875,5.264209747314453,3.9690945148468018,3.614956855773926
1764544903883200800,2.64620068359375,4.886143684387207,2.7667012214660645,2.9659037590026855
1764544903899935200,2.662935302734375,5.773880958557129,1.6444673538208008,2.0751755237579346
1764544903925077000,2.688076904296875,5.6793646812438965,0.39541393518447876,1.5810575485229492
1764544903941840100,2.704840087890625,5.651248931884766,-0.7459624409675598,1.573280930519104
1764544903958625000,2.721625,5.7164530754089355,-1.0689935684204102,2.5812573432922363
1764544903975396400,2.738396240234375,5.039882659912109,-1.181456208229065,3.0723843574523926
1764544903992119300,2.755119384765625,5.475376605987549,-2.0823538303375244,3.2452657222747803
1764544904008874800,2.771874755859375,5.073382377624512,-2.6087749004364014,5.126622676849365
1764544904025644500,2.78864453125,3.5617165565490723,-2.435295343399048,7.0061845779418945
1764544904042431000,2.805430908203125,1.9226330518722534,-1.7114664316177368,8.387441635131836
1764544904059160300,2.822160400390625,0.7836494445800781,-0.8422735929489136,9.674181938171387
1764544904075937300,2.838937255859375,0.4731806814670563,-0.4695914387702942,10.677970886230469
1764544904092717300,2.85571728515625,-0.6215356588363647,-0.34277185797691345,11.898310661315918
1764544904109472500,2.872472412109375,-0.7597211599349976,-0.8997012972831726,11.92044448852539
1764544904126212000,2.889212158203125,-0.052043892443180084,-1.2849457263946533,12.041281700134277
1764544904142997800,2.905997802734375,0.9032905697822571,-1.8442680835723877,12.66042423248291
1764544904159746600,2.92274658203125,1.683350682258606,-2.7146573066711426,13.542180061340332
1764544904176495000,2.9394951171875,2.991028308868408,-3.637688636779785,14.171492576599121
1764544904193258500,2.956258544921875,4.861019134521484,-4.2209391593933105,16.192829132080078
1764544904210039000,2.9730390625,5.745167255401611,-4.711467742919922,18.07598114013672
1764544904226779400,2.989779296875,-3.1902308464050293,-4.331607341766357,26.238496780395508
1764544904243568000,3.006568115234375,-4.131208419799805,-4.844269275665283,21.223737716674805
1764544904260309000,3.02330908203125,-3.5024940967559814,-7.534400463104248,16.142580032348633
1764544904277069600,3.040069580078125,1.5098711252212524,-9.647860527038574,16.399808883666992
1764544904293814800,3.056814697265625,6.420541286468506,-9.203393936157227,15.106487274169922
1764544904310608400,3.0736083984375,8.62014389038086,-9.1716890335083,12.623933792114258
1764544904327348200,3.09034814453125,9.289535522460938,-7.439285755157471,13.24547004699707
1764544904344131300,3.10713134765625,5.866004943847656,-5.785246849060059,12.363714218139648
1764544904360881700,3.123881591796875,1.7653049230575562,-4.600201606750488,7.777271747589111
1764544904377628400,3.14062841796875,3.3643085956573486,-5.035097122192383,3.373879909515381
1764544904394430200,3.15743017578125,-4.660620212554932,-5.071587562561035,-4.536791801452637
1764544904411175000,3.1741748046875,-0.4983053207397461,-3.961916208267212,-4.741377830505371
1764544904427909000,3.1909091796875,0.35114672780036926,-2.3024935722351074,-1.597209095954895
1764544904469816000,3.232816162109375,5.486144065856934,-0.129810631275177,4.718646049499512
1764544904494967000,3.257967041015625,6.512066841125488,0.5988038778305054,4.990829944610596
1764544904528480800,3.291480712890625,7.3884382247924805,-0.31046873331069946,11.668001174926758
1764544904553621000,3.31662109375,5.932405471801758,-2.895913600921631,13.708480834960938
1764544904570386000,3.333385986328125,7.701299667358398,-2.513660192489624,15.78664779663086
1764544904587131400,3.35013134765625,8.580063819885254,-5.169095039367676,12.229716300964355
1764544904603900200,3.366900146484375,8.056633949279785,-7.287341594696045,9.200403213500977
1764544904629048800,3.392048828125,6.251249313354492,-9.82373332977295,2.770888566970825
1764544904654207500,3.41720751953125,5.096114158630371,-9.854840278625488,1.2215359210968018
1764544904696088800,3.4590888671875,5.260620594024658,-7.723433494567871,6.81296443939209
1764544904712848000,3.475847900390625,5.641079425811768,-7.645666599273682,7.788039684295654
1764544904729602300,3.492602294921875,7.615756034851074,-7.241279602050781,9.394820213317871
1764544904746386000,3.509385986328125,16.252052307128906,-7.128817081451416,10.042078018188477
1764544904763143000,3.526142822265625,4.960321426391602,-3.9804604053497314,9.973284721374512
1764544904779924700,3.5429248046875,4.011567115783691,-1.5451651811599731,7.850253105163574
1764544904796656000,3.55965625,5.518447399139404,-0.7226324677467346,4.05703067779541
1764544904813436400,3.5764365234375,4.063611030578613,-0.38763725757598877,0.275174617767334
1764544904830195700,3.59319580078125,1.8496519327163696,0.6251249313354492,-1.5254244804382324
1764544904846971600,3.6099716796875,3.064009428024292,0.22013968229293823,-2.2342982292175293
1764544904863726300,3.626726318359375,3.601198196411133,0.592223584651947,-0.6604190468788147
1764544904880488000,3.643488037109375,2.4765713214874268,0.20099709928035736,0.4504488706588745
1764544904897232400,3.660232421875,1.7545372247695923,-0.6783652305603027,3.528815269470215
1764544904913984000,3.67698388671875,0.7561319470405579,-2.71645188331604,2.6422743797302246
1764544904930741200,3.6937412109375,1.9160526990890503,-5.850451469421387,-3.2727832794189453
1764544904947536400,3.710536376953125,9.294919967651367,-5.712863922119141,10.295717239379883
1764544904964286700,3.72728662109375,9.57906723022461,-4.96211576461792,19.571495056152344
1764544904981060000,3.74406005859375,5.7511491775512695,-8.321041107177734,16.841882705688477
1764544904997815600,3.760815673828125,1.8113667964935303,-8.711668968200684,9.143573760986328
1764544905014577200,3.7775771484375,0.6993024349212646,-9.514460563659668,6.107081413269043
1764544905031337500,3.79433740234375,2.1433708667755127,-8.901898384094238,6.999604225158691
1764544905048098800,3.811098876953125,2.6075785160064697,-8.138587951660156,7.890930652618408
1764544905064860200,3.827860107421875,-4.291527271270752,-6.1914286613464355,8.247461318969727
1764544905081621000,3.84462109375,4.402195453643799,-4.778466701507568,-1.6683956384658813
1764544905098382000,3.861382080078125,7.987242221832275,-10.01874828338623,3.704089403152466
1764544905115116500,3.878116455078125,3.2033913135528564,-8.835497856140137,5.8343000411987305
1764544905131904000,3.894904052734375,1.2646067142486572,-11.302497863769531,6.780661106109619
1764544905148627700,3.911627685546875,1.1306086778640747,-12.492328643798828,8.248658180236816
1764544905165426200,3.92842626953125,1.622931957244873,-12.332608222961426,8.185248374938965
1764544905182181000,3.94518115234375,3.040081262588501,-13.822139739990234,6.046064376831055
1764544905198955300,3.961955322265625,-2.7122645378112793,-12.038888931274414,2.2995026111602783
1764544905215715800,3.9787158203125,5.151148796081543,-16.621742248535156,5.940182209014893
1764544905232466000,3.9954658203125,1.2969099283218384,-10.097113609313965,5.102694511413574
1764544905249232600,4.012232666015625,1.511067509651184,-9.506684303283691,2.9718856811523438
1764544905265985800,4.02898583984375,0.9320043921470642,-8.569893836975098,2.9730820655822754
1764544905282762500,4.045762451171875,1.23589289188385,-8.892925262451172,2.6458635330200195
1764544905299516000,4.062515869140625,2.743969440460205,-8.039285659790039,1.2867404222488403
1764544905316277000,4.079277099609375,1.0079765319824219,-8.408378601074219,1.409970760345459
1764544905333037800,4.096037841796875,0.42412781715393066,-7.6737823486328125,2.5914268493652344
1764544905349793000,4.11279296875,0.06580262631177902,-7.8077802658081055,2.42512583732605
1764544905366558200,4.12955810546875,-0.0933200865983963,-7.670193195343018,2.5501506328582764
1764544905383321000,4.146321044921875,0.064606212079525,-7.308278560638428,2.1164517402648926
1764544905400057000,4.16305712890625,-0.21236300468444824,-9.011968612670898,1.7407784461975098
1764544905416844500,4.179844482421875,0.015553346835076809,-10.587043762207031,2.68953275680542
1764544905433594000,4.196593994140625,0.064606212079525,-10.457233428955078,3.603590965270996
1764544905450376700,4.213376708984375,0.4450650215148926,-12.076576232910156,3.991826295852661
1764544905467134000,4.230134033203125,1.3256237506866455,-11.906685829162598,4.099503517150879
1764544905483882000,4.246882080078125,1.5284154415130615,-10.673185348510742,3.6263227462768555
1764544905500649200,4.263649169921875,1.5044872760772705,-9.066405296325684,4.001996040344238
1764544905517410800,4.280410888671875,1.23589289188385,-8.276175498962402,2.8827531337738037
1764544905534199600,4.297199462890625,0.8721838593482971,-7.992027759552002,2.287538528442383
1764544905550933800,4.313933837890625,0.2309073805809021,-8.211568832397461,1.8149559497833252
1764544905567693800,4.33069384765625,0.4127618968486786,-7.609176158905029,2.1475582122802734
1764544905584454700,4.34745458984375,0.6496513485908508,-7.809575080871582,2.1266210079193115
1764544905601216500,4.364216552734375,0.6819544434547424,-8.136195182800293,2.3258235454559326
1764544905617940000,4.38093994140625,0.7393822073936462,-8.583054542541504,2.682354211807251
1764544905634738700,4.39773876953125,0.373878538608551,-9.685547828674316,3.6155550479888916
1764544905651482000,4.414482177734375,0.0023928226437419653,-9.860223770141602,3.950550079345703
1764544905668260600,4.431260498046875,0.11006984114646912,-9.577272415161133,3.8847475051879883
1764544905685016300,4.448016357421875,-0.13998012244701385,-8.62313461303711,3.492922782897949
1764544905701787600,4.46478759765625,-0.47557350993156433,-8.091927528381348,3.424727439880371
1764544905718522000,4.481522216796875,-0.40259242057800293,-8.216354370117188,3.4193434715270996
1764544905735311000,4.49831103515625,-0.10648060590028763,-8.185248374938965,3.1746773719787598
1764544905752066800,4.51506689453125,-1.2161520719528198,-7.938787460327148,2.9306094646453857
1764544905768830500,4.53183056640625,-0.03529413416981697,-8.49870777130127,3.5359935760498047
1764544905785588700,4.548588623046875,0.6837490797042847,-9.056235313415527,3.4785659313201904
1764544905802350300,4.565350341796875,0.4546363055706024,-8.673383712768555,3.3571300506591797
1764544905819078100,4.582078125,0.022133609279990196,-8.973084449768066,3.6532418727874756
1764544905835872300,4.598872314453125,-0.7345965504646301,-9.431310653686523,3.9595232009887695
1764544905852633900,4.6156337890625,-1.5720844268798828,-9.586843490600586,3.914059638977051
1764544905869367000,4.632366943359375,-1.9369899034500122,-9.619147300720215,3.503690481185913
1764544905886155500,4.649155517578125,-1.7198412418365479,-9.752547264099121,3.497708559036255
1764544905902891000,4.66589111328125,-0.9152546525001526,-9.769296646118164,3.3894333839416504
1764544905919666000,4.682666015625,-0.11425728350877762,-9.809974670410156,3.3678979873657227
1764544905936444000,4.69944384765625,0.2153540402650833,-9.698708534240723,3.40079927444458
1764544905953200600,4.71620068359375,0.5473581552505493,-9.80399227142334,3.513859987258911
1764544905969953800,4.732953857421875,1.129412293434143,-10.573285102844238,3.5132617950439453
1764544905986727000,4.749726806640625,1.6247265338897705,-11.195419311523438,3.714258909225464
1764544906003484200,4.766484130859375,1.7240287065505981,-11.164312362670898,3.3266217708587646
1764544906020242000,4.783241943359375,1.812563180923462,-10.900503158569336,3.193819999694824
1764544906037011500,4.800011474609375,0.9439685344696045,-10.308279991149902,3.046661376953125
1764544906053772800,4.816772705078125,0.45104706287384033,-9.436694145202637,2.774477958679199
1764544906070528300,4.8335283203125,-0.025722842663526535,-8.668000221252441,3.0143582820892334
1764544906087289300,4.850289306640625,0.026919255033135414,-8.112865447998047,3.0454649925231934
1764544906104050400,4.867050537109375,0.3038884699344635,-7.522436141967773,2.9180471897125244
1764544906120811500,4.8838115234375,0.5641079545021057,-7.265805721282959,2.5357937812805176
1764544906137572900,4.90057275390625,1.0205388069152832,-7.4979095458984375,2.2127628326416016
1764544906154301000,4.917301025390625,1.4350954294204712,-7.665407180786133,2.459223508834839
1764544906171095000,4.934094970703125,1.592423439025879,-8.001599311828613,2.7870402336120605
1764544906187850000,4.95085009765625,1.7102699279785156,-8.303692817687988,2.9766714572906494
1764544906204622800,4.967622802734375,1.74496591091156,-8.851051330566406,3.2416765689849854
1764544906221379800,4.9843798828125,1.8628123998641968,-9.509077072143555,3.754936933517456
1764544906238137900,5.001137939453125,2.2019951343536377,-9.741181373596191,4.336392879486084
1764544906254901200,5.0179013671875,2.4436700344085693,-9.93260669708252,4.473381996154785
1764544906271623700,5.034623779296875,2.5148565769195557,-9.850652694702148,4.392025947570801
1764544906288427800,5.051427734375,2.1649062633514404,-9.429515838623047,4.218546390533447
1764544906305184300,5.068184326171875,1.975873351097107,-9.232706069946289,4.009174346923828
1764544906321953300,5.084953369140625,1.698904037475586,-8.901300430297852,3.710669755935669
1764544906338700300,5.1017001953125,1.4051851034164429,-8.85763168334961,3.4342987537384033
1764544906355468500,5.118468505859375,1.0169496536254883,-8.93420124053955,3.1148569583892822
1764544906372182800,5.135182861328125,0.8787640929222107,-8.977272033691406,3.08135724067688
1764544906388990000,5.151989990234375,0.8961120843887329,-8.785846710205078,3.063411235809326
1764544906405731800,5.16873193359375,0.8524430394172668,-8.700303077697754,3.2213375568389893
1764544906422472400,5.185472412109375,1.170688509941101,-8.769096374511719,3.7848472595214844
1764544906439272400,5.2022724609375,1.648654818534851,-8.601000785827637,3.9559340476989746
1764544906456034800,5.219034912109375,1.8442680835723877,-8.391629219055176,4.37228536605835
1764544906472761000,5.235760986328125,1.7808582782745361,-8.328817367553711,4.2245283126831055
1764544906489546000,5.2525458984375,1.6707884073257446,-8.46161937713623,3.827319860458374
1764544906506329000,5.2693291015625,0.9643075466156006,-8.097311973571777,4.395615100860596
1764544906523051000,5.286051025390625,0.48813581466674805,-7.864011764526367,4.398606300354004
1764544906539817200,5.302817138671875,0.753140926361084,-8.10688304901123,4.190430641174316
1764544906556601600,5.3196015625,0.8189435601234436,-7.943572998046875,4.186243057250977
1764544906573362200,5.336362060546875,0.9876375198364258,-7.987840175628662,4.420141696929932
1764544906590123500,5.35312353515625,0.7926225066184998,-8.714659690856934,4.197608947753906
1764544906606884600,5.369884521484375,0.664606511592865,-8.304888725280762,4.4961137771606445
1764544906623646000,5.38664599609375,0.8656035661697388,-8.7445707321167,4.445864677429199
1764544906640406300,5.40340625,0.8141579031944275,-8.907281875610352,4.402195453643799
1764544906657123000,5.420123046875,0.753140926361084,-9.05982494354248,4.267599105834961
1764544906673910000,5.436909912109375,0.6939185857772827,-8.96829891204834,4.124628067016602
1764544906690682600,5.4536826171875,0.794417142868042,-8.85942554473877,4.36391019821167
1764544906707458000,5.4704580078125,0.7932206988334656,-8.7445707321167,4.417150497436523
1764544906724212700,5.487212646484375,0.7698906660079956,-8.679964065551758,4.876572608947754
1764544906740973300,5.503973388671875,0.9571290612220764,-8.5100736618042,5.551348686218262
1764544906757750800,5.520750732421875,1.8478572368621826,-8.50169849395752,5.323431968688965
1764544906774460700,5.537460693359375,1.1934202909469604,-8.780462265014648,5.13320255279541
1764544906791260200,5.55426025390625,2.0093727111816406,-8.8648099899292,5.278566837310791
1764544906808018200,5.57101806640625,2.163709878921509,-9.09691333770752,4.812564373016357
1764544906824780000,5.587780029296875,2.0452651977539062,-9.41037368774414,4.256831645965576
1764544906841539800,5.604539794921875,1.934597134590149,-8.8648099899292,4.173680782318115
1764544906858302200,5.62130224609375,1.8263218402862549,-9.122636795043945,3.957728624343872
1764544906875037400,5.638037353515625,1.6929219961166382,-9.711869239807129,3.9361932277679443
1764544906891823900,5.654823974609375,1.6313068866729736,-10.432706832885742,3.3786656856536865
1764544906908567000,5.671567138671875,1.9022940397262573,-10.272985458374023,3.239881753921509
1764544906925330000,5.688329833984375,1.8855443000793457,-11.062019348144531,2.9970104694366455
1764544906942081500,5.70508154296875,1.7150555849075317,-11.344371795654297,2.9006991386413574
1764544906958868500,5.721868408203125,1.654038667678833,-10.458429336547852,2.799602508544922
1764544906975634200,5.73863427734375,1.6175481081008911,-9.65384292602539,2.803191661834717
1764544906992390400,5.755390380859375,1.2664014101028442,-8.980263710021973,2.9030921459198
1764544907009152800,5.77215283203125,0.9625129103660583,-8.83669376373291,2.809173822402954
1764544907025863700,5.78886376953125,1.210170030593872,-8.184649467468262,2.7110681533813477
1764544907042680000,5.80568017578125,1.5547364950180054,-8.196015357971191,2.279761791229248
1764544907059435800,5.822435791015625,1.587039589881897,-8.081160545349121,2.3228325843811035
1764544907076196900,5.83919677734375,1.82273268699646,-8.288737297058105,1.8957136869430542
1764544907092957700,5.855957763671875,1.4620146751403809,-8.250452041625977,1.576870083808899
1764544907109713700,5.872713623046875,1.4775680303573608,-8.895915985107422,1.454237937927246
1764544907126485500,5.889485595703125,1.2023934125900269,-9.606584548950195,1.695314884185791
1764544907143240700,5.90624072265625,0.7411768436431885,-10.033703804016113,1.6474584341049194
1764544907159980500,5.92298046875,0.3326023519039154,-10.503294944763184,1.3926228284835815
1764544907176763400,5.939763427734375,0.3810569941997528,-10.427921295166016,1.7515461444854736
1764544907193499400,5.95649951171875,0.5790630578994751,-10.533803939819336,2.008774518966675
1764544907210285600,5.97328564453125,0.5228317379951477,-10.60678482055664,2.128415822982788
1764544907227047200,5.990047119140625,0.5204389095306396,-10.198209762573242,2.785245656967163
1764544907243807500,6.006807373046875,0.5832505226135254,-10.147960662841797,3.311666488647461
1764544907260563700,6.023563720703125,0.5730810165405273,-9.999606132507324,3.422334671020508
1764544907277303600,6.040303466796875,0.7028916478157043,-9.610772132873535,3.284747362136841
1764544907294060300,6.057060302734375,0.7645068168640137,-9.101698875427246,3.0239295959472656
1764544907310858800,6.073858642578125,0.5988038778305054,-8.85643482208252,2.733799934387207
1764544907327610600,6.090610595703125,0.3523431420326233,-8.7505521774292,2.434098720550537
1764544907344374500,6.10737451171875,0.020338991656899452,-8.678768157958984,2.176870346069336
1764544907361137200,6.12413720703125,-0.32542386651039124,-8.564510345458984,2.149951219558716
1764544907377900000,6.140900146484375,-0.7106683254241943,-8.37428092956543,2.2097716331481934
1764544907394658800,6.157658935546875,-1.0139585733413696,-8.193622589111328,2.321038007736206
1764544907411394000,6.17439404296875,-1.0683952569961548,-8.007580757141113,2.4705893993377686
1764544907428136400,6.191136474609375,-0.9158528447151184,-7.855038642883301,2.6572296619415283
1764544907444912400,6.207912353515625,-0.7728816866874695,-7.664809226989746,2.9832515716552734
1764544907461703400,6.224703369140625,-0.7537391185760498,-7.5942206382751465,3.3373894691467285
1764544907478425300,6.24142529296875,-0.8225327730178833,-7.892725467681885,3.541377544403076
1764544907495225300,6.258225341796875,-1.031306505203247,-7.920242786407471,4.183252334594727
1764544907511981600,6.274981689453125,-0.794417142868042,-8.736793518066406,3.857828378677368
1764544907528720100,6.29172021484375,-0.7986045479774475,-8.700303077697754,4.288536548614502
1764544907545508000,6.308508056640625,-0.5964110493659973,-8.804390907287598,4.148556232452393
1764544907562270200,6.325270263671875,-0.4905286431312561,-8.828319549560547,4.205984115600586
1764544907578984200,6.341984130859375,-0.5670989751815796,-8.81515884399414,4.296911239624023
1764544907595792100,6.358792236328125,-0.9649057388305664,-8.900702476501465,3.934398651123047
1764544907612553700,6.3755537109375,-1.4297115802764893,-9.014959335327148,3.5336008071899414
1764544907629273000,6.392273193359375,-1.6007983684539795,-9.305088996887207,3.078366279602051
1764544907646075000,6.409074951171875,-1.069591760635376,-9.772287368774414,2.9694929122924805
1764544907662822000,6.42582177734375,-0.39182472229003906,-10.549955368041992,2.7625136375427246
1764544907679562200,6.442562255859375,-0.08015955984592438,-10.96750259399414,3.132802963256836
1764544907696341200,6.45934130859375,0.5108676552772522,-11.706286430358887,2.7876384258270264
1764544907713120300,6.476120361328125,1.2687941789627075,-11.84746265411377,2.703291416168213
1764544907729845000,6.492844970703125,2.0243279933929443,-11.663813591003418,2.730808734893799
1764544907746648300,6.5096484375,2.3569302558898926,-10.787442207336426,2.9252257347106934
1764544907763397400,6.5263974609375,1.9752750396728516,-10.435099601745605,3.095116138458252
1764544907780161500,6.54316162109375,0.9511470198631287,-9.617950439453125,2.8773691654205322
1764544907796925700,6.55992578125,0.19740787148475647,-9.485747337341309,2.8660032749176025
1764544907813687000,6.57668701171875,-0.2392822653055191,-8.831908226013184,3.119044303894043
1764544907830443500,6.593443603515625,-0.19800607860088348,-8.094919204711914,3.2135608196258545
1764544907847209500,6.61020947265625,0.1698904037475586,-7.523034572601318,2.9617161750793457
1764544907863970600,6.626970458984375,0.6951149702072144,-7.443472862243652,2.644667148590088
1764544907880693000,6.64369287109375,1.074377417564392,-7.585247993469238,2.441875457763672
1764544907897511400,6.660511474609375,1.293320655822754,-7.8628153800964355,2.5351955890655518
1764544907914229200,6.677229248046875,1.4267204999923706,-8.279764175415039,2.6907291412353516
1764544907931006000,6.694005859375,1.604387640953064,-8.754141807556152,2.8935208320617676
1764544907947739000,6.71073876953125,1.8233308792114258,-9.06580638885498,3.111865758895874
1764544907964511700,6.72751171875,2.1918256282806396,-9.382855415344238,3.463012456893921
1764544907981284600,6.74428466796875,2.5591237545013428,-9.604191780090332,3.9008991718292236
1764544907998048500,6.761048583984375,2.7284159660339355,-9.691530227661133,4.291527271270752
1764544908014814700,6.777814697265625,2.6183462142944336,-9.673583984375,4.473979949951172
1764544908031572200,6.794572265625,2.3192434310913086,-9.454042434692383,4.514060020446777
1764544908048342300,6.81134228515625,2.0584256649017334,-9.243474006652832,4.37228536605835
1764544908065104100,6.828104248046875,1.9010975360870361,-8.888139724731445,4.106681823730469
1764544908081862400,6.8448623046875,1.8388842344284058,-8.47597599029541,3.888935089111328
1764544908098632700,6.8616328125,1.568495273590088,-8.279764175415039,3.751945972442627
1764544908115387600,6.8783876953125,1.2939188480377197,-8.207381248474121,3.524029493331909
1764544908132105000,6.89510498046875,1.155135154724121,-8.245068550109863,3.3134610652923584
1764544908148909600,6.91190966796875,1.2083754539489746,-8.37846851348877,3.207578659057617
1764544908165671200,6.928671142578125,1.397408366203308,-8.565108299255371,3.2925238609313965
1764544908182393300,6.945393310546875,1.6157535314559937,-8.800203323364258,3.5198421478271484
1764544908199163400,6.962163330078125,1.7910277843475342,-8.997611045837402,3.786043643951416
1764544908215955000,6.978954833984375,1.8496519327163696,-9.022137641906738,4.034897327423096
1764544908232682200,6.99568212890625,1.8095721006393433,-8.821739196777344,4.097708702087402
1764544908249476000,7.01247607421875,1.6157535314559937,-8.61176872253418,4.1282172203063965
1764544908266231800,7.029231689453125,1.4075778722763062,-8.396414756774902,4.091726779937744
1764544908282977000,7.04597705078125,1.2245270013809204,-8.282156944274902,4.131208419799805
1764544908299759600,7.062759521484375,1.1473584175109863,-8.258827209472656,4.164707660675049
1764544908316521200,7.079521240234375,1.1048858165740967,-8.288139343261719,4.25084924697876
1764544908333283300,7.096283447265625,1.1054840087890625,-8.302495956420898,4.327419757843018
1764544908350043400,7.11304345703125,1.033101201057434,-8.307282447814941,4.2987060546875
1764544908366804700,7.1298046875,0.8847461938858032,-8.345566749572754,4.189234256744385
1764544908383565600,7.146565673828125,0.8470591902732849,-8.445467948913574,4.040879249572754
1764544908400326400,7.163326416015625,0.7854440212249756,-8.531609535217285,3.968496322631836
1764544908417088500,7.180088623046875,0.7998009920120239,-8.560322761535645,3.944568157196045
1764544908433843700,7.19684375,0.8823533654212952,-8.613563537597656,4.073182582855225
1764544908450566100,7.213566162109375,0.989432156085968,-8.72482967376709,4.354339122772217
1764544908467371800,7.230371826171875,1.0767701864242554,-8.763712882995605,4.597808837890625
1764544908484131300,7.24713134765625,1.067797064781189,-8.759525299072266,4.7365922927856445
1764544908500893700,7.263893798828125,1.0049854516983032,-8.755337715148926,4.741377830505371
1764544908517655300,7.2806552734375,1.0187442302703857,-8.682954788208008,4.727619171142578
1764544908534400500,7.297400390625,1.079761266708374,-8.544769287109375,4.809573650360107
1764544908551177000,7.314177001953125,1.098903775215149,-8.473583221435547,4.972285270690918
1764544908567939000,7.33093896484375,1.012762188911438,-8.407780647277832,5.221737384796143
1764544908584699400,7.347699462890625,1.0947163105010986,-8.46580696105957,5.3593244552612305
1764544908601460500,7.36446044921875,1.2065808773040771,-8.603992462158203,5.3108696937561035
1764544908618222300,7.381222412109375,1.4991034269332886,-8.669795036315918,5.175675392150879
1764544908634951000,7.397950927734375,1.7545372247695923,-8.831310272216797,5.068596363067627
1764544908651743500,7.414743408203125,2.018345832824707,-8.930013656616211,4.838287353515625
1764544908668505000,7.431505126953125,2.09431791305542,-8.985647201538086,4.512265205383301
1764544908685238500,7.448238525390625,2.1918256282806396,-9.21834945678711,4.204787731170654
1764544908701981000,7.46498095703125,2.084148406982422,-9.528818130493164,3.9074792861938477
1764544908718788600,7.48178857421875,1.9154545068740845,-9.973882675170898,3.7525441646575928
1764544908735524400,7.4985244140625,1.750349760055542,-10.271191596984863,3.7232320308685303
1764544908752310500,7.515310546875,1.7078771591186523,-10.333404541015625,3.7232320308685303
1764544908769073000,7.532072998046875,1.7742780447006226,-10.27597713470459,3.809373617172241
1764544908785793800,7.548793701171875,1.8502501249313354,-10.170692443847656,3.84765887260437
1764544908802578200,7.565578125,2.0889341831207275,-9.6795654296875,3.4857444763183594
1764544908819356200,7.582356201171875,2.132603168487549,-9.78843879699707,3.207578659057617
1764544908836117800,7.59911767578125,2.043470621109009,-9.604191780090332,2.7116663455963135
1764544908852877600,7.615877685546875,1.933998942375183,-9.348159790039062,2.076970100402832
1764544908869633000,7.632633056640625,1.848455548286438,-9.058030128479004,1.4949159622192383
1764544908886407000,7.649406982421875,1.714457392692566,-8.706883430480957,1.1001001596450806
1764544908903161000,7.6661611328125,1.2705888748168945,-8.448458671569824,0.8877372145652771
1764544908919922400,7.68292236328125,0.5784648656845093,-8.225926399230957,0.9625129103660583
1764544908936651500,7.699651611328125,0.09990034252405167,-8.21874713897705,1.2083754539489746
1764544908953399800,7.71639990234375,-0.12023933976888657,-8.629117012023926,1.7569299936294556
1764544908970206700,7.733206787109375,0.0568295381963253,-9.412766456604004,2.541775941848755
1764544908986947300,7.749947265625,0.38225340843200684,-10.125228881835938,3.4510483741760254
1764544909003728000,7.766727783203125,0.7232306599617004,-10.585248947143555,3.772883176803589
1764544909020489500,7.783489501953125,1.0821540355682373,-10.555338859558105,3.7525441646575928
1764544909037255700,7.800255615234375,1.4386845827102661,-10.248459815979004,3.810570001602173
1764544909053986300,7.816986328125,1.5744773149490356,-9.954740524291992,3.6436707973480225
1764544909070773200,7.833773193359375,1.5314065217971802,-9.537193298339844,3.411566972732544
1764544909087534300,7.850534423828125,1.2957134246826172,-9.080761909484863,2.8839495182037354
1764544909104295000,7.867294921875,0.8117650747299194,-8.766703605651855,2.0883359909057617
1764544909121056300,7.88405615234375,0.3290131092071533,-8.511868476867676,1.5314065217971802
1764544909137801700,7.9008017578125,0.01136590726673603,-8.416155815124512,1.4177473783493042
1764544909154579200,7.9175791015625,-0.07058826833963394,-8.321639060974121,1.6049858331680298
1764544909171340000,7.934340087890625,0.11186445504426956,-8.313263893127441,1.8915263414382935
1764544909188104700,7.951104736328125,0.30568310618400574,-8.400003433227539,2.2301106452941895
1764544909204830000,7.967829833984375,0.4265206456184387,-8.406583786010742,2.650649309158325
1764544909221623300,7.984623291015625,0.4893322288990021,-8.37547779083252,3.1238300800323486
1764544909238341400,8.00134130859375,0.5862415432929993,-8.443074226379395,3.2955150604248047
1764544909255145700,8.018145751953124,0.6825526356697083,-8.338987350463867,3.6879379749298096
1764544909271900700,8.034900634765625,0.6598208546638489,-8.474181175231934,3.85483717918396
1764544909288639000,8.051638916015625,0.5084748268127441,-8.703293800354004,3.67238450050354
1764544909305423000,8.068423095703125,0.28893333673477173,-8.875576972961426,3.418745279312134
1764544909322196700,8.08519677734375,0.14117653667926788,-8.994022369384766,3.184248685836792
1764544909338951200,8.101951171875,0.08434699475765228,-9.141778945922852,2.9970104694366455
1764544909355712000,8.1187119140625,-0.07357929646968842,-9.123832702636719,3.11246395111084
1764544909372474400,8.135474365234375,-0.1818545162677765,-9.254839897155762,3.3756744861602783
1764544909389239300,8.1522392578125,-0.21415762603282928,-9.327820777893066,3.5952160358428955
1764544909405996000,8.16899609375,-0.0891326442360878,-9.403793334960938,3.6089746952056885
1764544909422756900,8.1857568359375,0.24047867953777313,-9.1986083984375,3.8428730964660645
1764544909439488500,8.202488525390624,0.4181457459926605,-9.255437850952148,3.851846218109131
1764544909456259800,8.219259765625,0.48454657196998596,-9.258428573608398,3.57906436920166
1764544909473041400,8.23604150390625,0.23270200192928314,-9.117850303649902,3.0927233695983887
1764544909489777000,8.25277685546875,-0.2763710021972656,-9.09392261505127,2.7260231971740723
1764544909506569000,8.26956884765625,-0.768694281578064,-9.285347938537598,2.468794822692871
1764544909523324400,8.286324462890626,-1.1150553226470947,-9.589237213134766,2.6596224308013916
1764544909540057300,8.303057373046874,-0.9068797826766968,-9.795019149780273,2.7726831436157227
1764544909556844500,8.319844482421875,-0.4331009089946747,-9.678967475891113,2.843271493911743
1764544909573610200,8.3366103515625,0.02512463741004467,-9.543174743652344,2.675175666809082
1764544909590359800,8.35335986328125,0.39960137009620667,-9.6466646194458,2.5250260829925537
1764544909607130000,8.370130126953125,0.5670989751815796,-10.115657806396484,2.599203586578369
1764544909623891700,8.3868916015625,0.641276478767395,-10.825129508972168,2.820539712905884
1764544909640648200,8.403648193359375,0.7950153350830078,-11.318649291992188,2.9180471897125244
1764544909657413400,8.420413330078125,0.8524430394172668,-11.35633659362793,2.8217360973358154
1764544909674198300,8.4371982421875,0.7459624409675598,-11.255239486694336,2.665006160736084
1764544909690937000,8.45393701171875,0.5078766345977783,-10.968100547790527,2.523829698562622
1764544909707662000,8.470662109375,0.2787638306617737,-10.518848419189453,2.593221426010132
1764544909724458200,8.487458251953125,0.3978067636489868,-9.896714210510254,2.7535407543182373
1764544909741213200,8.504213134765624,0.6251249313354492,-9.077771186828613,2.933600664138794
1764544909757977300,8.520977294921876,0.7663014531135559,-8.306683540344238,2.974876642227173
1764544909774742300,8.5377421875,0.9056833982467651,-7.82273530960083,2.919243574142456
1764544909791502800,8.5545029296875,0.9397810697555542,-7.926823139190674,2.785245656967163
1764544909808257000,8.571257080078125,0.9290133714675903,-8.329415321350098,2.8115665912628174
1764544909825032000,8.588031982421874,1.0289137363433838,-8.755337715148926,2.7667012214660645
1764544909841786400,8.604786376953125,1.1353943347930908,-8.892925262451172,2.5645077228546143
1764544909858547700,8.621547607421874,1.1341979503631592,-8.82951545715332,2.297109842300415
1764544909875309000,8.63830908203125,1.2628121376037598,-8.775676727294922,2.1535403728485107
1764544909892037000,8.655037109375,1.6755740642547607,-8.851051330566406,2.1373889446258545
1764544909908835300,8.67183544921875,2.0554347038269043,-8.955737113952637,2.307877540588379
1764544909925592000,8.688592041015625,2.3204398155212402,-9.014361381530762,2.651247501373291
1764544909942326000,8.705325927734375,2.445464849472046,-8.991629600524902,3.019144058227539
1764544909959081000,8.7220810546875,2.5561327934265137,-8.94975471496582,3.324826955795288
1764544909975876000,8.7388759765625,2.6327030658721924,-8.898308753967285,3.5497524738311768
1764544909992598500,8.7555986328125,2.647658348083496,-8.907880783081055,3.607180118560791
1764544910009397500,8.7723974609375,2.538186550140381,-9.008378982543945,3.52103853225708
1764544910026159400,8.789159423828124,2.2947168350219727,-9.156734466552734,3.348755359649658
1764544910042882000,8.805882080078124,1.9645073413848877,-9.270991325378418,3.0861430168151855
1764544910059676700,8.8226767578125,1.5284154415130615,-9.376873970031738,2.843271493911743
1764544910076446700,8.83944677734375,1.0408778190612793,-9.535398483276367,2.6913273334503174
1764544910101566500,8.86456640625,0.5653043389320374,-9.369695663452148,2.779263496398926
1764544910118304000,8.881303955078126,0.5485545992851257,-9.035298347473145,3.0346972942352295
1764544910135117300,8.898117431640625,0.875174880027771,-8.542975425720215,3.3846476078033447
1764544910151867400,8.914867431640625,1.2388839721679688,-8.380861282348633,3.690330743789673
1764544910168593700,8.93159375,1.5643078088760376,-8.280363082885742,3.924229145050049
1764544910185389300,8.948389404296876,1.7425731420516968,-8.35274600982666,4.104887008666992
1764544910202151700,8.965151611328125,1.667797327041626,-8.487939834594727,4.2484564781188965
1764544910218883300,8.98188330078125,1.4536397457122803,-8.632107734680176,4.320241451263428
1764544910235673300,8.99867333984375,1.2490534782409668,-8.81934642791748,4.243072986602783
1764544910252434700,9.0154345703125,1.0145567655563354,-8.929415702819824,4.104887008666992
1764544910269200600,9.03220068359375,0.8757730722427368,-8.971888542175293,3.951746702194214
1764544910285956900,9.048956787109375,0.7746763229370117,-8.976076126098633,3.775275945663452
1764544910302718500,9.065718505859374,0.7645068168640137,-8.918049812316895,3.665804386138916
1764544910319436000,9.08243603515625,0.8015955686569214,-8.784051895141602,3.666402578353882
1764544910336240400,9.099240478515625,0.786640465259552,-8.712865829467773,3.7429728507995605
1764544910353002000,9.116001953125,0.7387840151786804,-8.669795036315918,3.810570001602173
1764544910369718300,9.13271826171875,0.6711867451667786,-8.670392990112305,3.8392839431762695
1764544910386515700,9.149515625,0.633499801158905,-8.703892707824707,3.8009986877441406
1764544910403285200,9.16628515625,0.6634100675582886,-8.857032775878906,3.786043643951416
1764544910420013000,9.183012939453125,0.7501499056816101,-8.913862228393555,3.7232320308685303
1764544910436807700,9.1998076171875,0.865005373954773,-8.922835350036621,3.689134359359741
1764544910453563000,9.21656298828125,0.8937192559242249,-8.879764556884766,3.717848300933838
1764544910470308400,9.233308349609375,0.8350951075553894,-8.775078773498535,3.8333017826080322
1764544910487090700,9.250090576171875,0.7489534616470337,-8.718249320983887,3.8913278579711914
1764544910503852500,9.2668525390625,0.7058826684951782,-8.7236328125,3.9391841888427734
1764544910520617000,9.283616943359375,0.6681957244873047,-8.785846710205078,3.958326816558838
1764544910537374200,9.300374267578125,0.7920243144035339,-8.70508861541748,4.125824451446533
1764544910554110700,9.31711083984375,0.8536394834518433,-8.566903114318848,4.3794636726379395
1764544910570853600,9.333853515625,0.8883354067802429,-8.559126853942871,4.690530776977539
1764544910587657500,9.350657470703124,1.1288141012191772,-8.569295883178711,4.971687316894531
1764544910604419600,9.367419677734375,1.2113664150238037,-8.679366111755371,5.02851676940918
1764544910621141200,9.384141357421875,1.3513466119766235,-8.799007415771484,5.01296329498291
1764544910637931000,9.400930908203126,1.567897081375122,-8.927022933959961,4.8777689933776855
1764544910654703000,9.417703125,1.5774682760238647,-9.011369705200195,4.604987144470215
1764544910671431000,9.434430908203124,1.649253010749817,-9.038887977600098,4.355535507202148
1764544910688224500,9.451224609375,1.6791633367538452,-9.276973724365234,4.063013076782227
1764544910704989400,9.467989501953125,1.6007983684539795,-9.640084266662598,3.9080774784088135
1764544910721717000,9.484717041015625,1.454836130142212,-9.951150894165039,3.744767427444458
1764544910738508800,9.5015087890625,1.3603196144104004,-10.142577171325684,3.5958142280578613
1764544910755270100,9.518270263671875,1.4374881982803345,-10.194023132324219,3.452244758605957
1764544910772024800,9.53502490234375,1.5702898502349854,-10.083354949951172,3.4091739654541016
1764544910788797700,9.551797607421875,1.649253010749817,-9.77707290649414,3.4582269191741943
1764544910805554000,9.568553955078125,1.5846468210220337,-9.542576789855957,3.5168511867523193
1764544910822297600,9.585297607421875,1.4578272104263306,-9.279366493225098,3.518047571182251
1764544910839075300,9.602075439453126,1.3555340766906738,-9.131608963012695,3.552743434906006
1764544910855810800,9.618810791015624,1.3076776266098022,-9.126823425292969,3.476173162460327
1764544910872601300,9.635601318359376,1.3651052713394165,-9.169296264648438,3.380460262298584
1764544910889350700,9.6523505859375,1.4506487846374512,-9.120243072509766,3.2656047344207764
1764544910906121000,9.669120849609374,1.51166570186615,-9.028717994689941,3.1555347442626953
1764544910922836700,9.685836669921875,1.5738791227340698,-9.042476654052734,3.0550363063812256
1764544910939642600,9.702642578125,1.583450436592102,-9.061619758605957,3.002394199371338
1764544910956402700,9.719402587890626,1.578664779663086,-9.080163955688477,2.9210381507873535
1764544910973127400,9.73612744140625,1.6007983684539795,-8.921639442443848,2.8211379051208496
1764544910989919200,9.752919189453126,1.5553346872329712,-8.70508861541748,2.5782663822174072
1764544911006694400,9.7696943359375,1.389631748199463,-8.483752250671387,2.2265214920043945
1764544911023445200,9.7864453125,1.0809576511383057,-8.3629150390625,1.887937068939209
1764544911040209400,9.80320947265625,0.7998009920120239,-8.597412109375,1.6630117893218994
1764544911056970800,9.819970703125,0.6538388133049011,-8.913264274597168,1.5236297845840454
1764544911073752300,9.83675244140625,0.5868397355079651,-9.392427444458008,1.6456637382507324
1764544911090492400,9.853492431640625,0.5778666734695435,-9.90149974822998,1.8969101905822754
1764544911107254500,9.870254638671875,0.5096712112426758,-10.191031455993652,2.331207513809204
1764544911123986200,9.886986083984375,0.4247260093688965,-10.183853149414062,2.7906293869018555
1764544911140734500,9.903734375,0.41515472531318665,-10.128219604492188,3.116053342819214
1764544911157512400,9.920512451171875,0.49651068449020386,-10.066604614257812,3.3409786224365234
1764544911174273000,9.93727294921875,0.8590233325958252,-9.855438232421875,3.469592809677124
1764544911191034400,9.954034423828125,1.1012966632843018,-9.647860527038574,3.2548370361328125
1764544911207801000,9.970801025390625,0.9840483069419861,-9.465408325195312,3.0933215618133545
1764544911224550700,9.987550537109374,0.6885347366333008,-9.244669914245605,2.8037898540496826
1764544911241344300,10.00434423828125,0.364905446767807,-8.981459617614746,2.6051857471466064
1764544911258105600,10.021105712890625,0.064606212079525,-8.718249320983887,2.459223508834839
1764544911274880000,10.0378798828125,-0.15732808411121368,-8.565707206726074,2.4699912071228027
1764544911291626800,10.054626708984374,-0.2913261651992798,-8.556734085083008,2.5806591510772705
1764544911308389000,10.07138916015625,-0.3188436031341553,-8.596813201904297,2.8528428077697754
1764544911325149000,10.08814892578125,-0.26500511169433594,-8.650053977966309,3.0484559535980225
1764544911341910800,10.104910888671874,-0.24526432156562805,-8.665008544921875,3.2159535884857178
1764544911358672100,10.121672119140625,-0.18305093050003052,-8.622536659240723,3.345165967941284
1764544911375433200,10.13843310546875,-0.06819544732570648,-8.612964630126953,3.4019956588745117
1764544911392152000,10.155152099609374,-0.019740786403417587,-8.636893272399902,3.4683964252471924
1764544911408956200,10.1719560546875,-0.04307080805301666,-8.718249320983887,3.425325632095337
1764544911425716000,10.188716064453125,-0.11545369029045105,-8.665607452392578,3.3541390895843506
1764544911442477800,10.205477783203126,-0.20817556977272034,-8.545966148376465,3.3308091163635254
1764544911459235300,10.2222353515625,-0.2949153780937195,-8.47896671295166,3.3074791431427
1764544911476004000,10.239004150390626,-0.3290131092071533,-8.39282512664795,3.332005500793457
1764544911492760800,10.2557607421875,-0.3200400173664093,-8.316853523254395,3.428316593170166
1764544911509520100,10.27252001953125,-0.3433700501918793,-8.394021987915039,3.480360507965088
1764544911526285600,10.28928564453125,-0.34277185797691345,-8.417949676513672,3.5330026149749756
1764544911543044900,10.306044921875,-0.4043870270252228,-8.49033260345459,3.5850465297698975
1764544911559806200,10.32280615234375,-0.5030909776687622,-8.653642654418945,3.6951162815093994
1764544911576566800,10.33956689453125,-0.5431707501411438,-8.951549530029297,3.793820381164551
1764544911593327600,10.35632763671875,-0.4007977843284607,-9.324830055236816,3.820739507675171
1764544911610090200,10.37309033203125,-0.1579262912273407,-9.640084266662598,3.789632797241211
1764544911626850000,10.38985009765625,0.1453639715909958,-9.830313682556152,3.7495529651641846
1764544911643586800,10.4065869140625,0.26979073882102966,-9.848259925842285,3.5814573764801025
1764544911660373000,10.423373046875,0.0005982056609354913,-9.800403594970703,3.362514019012451
1764544911677134300,10.44013427734375,-0.5832505226135254,-9.958928108215332,3.187239646911621
1764544911693879600,10.456879638671875,-0.8787640929222107,-10.065408706665039,3.2446675300598145
1764544911710650600,10.473650634765624,-0.9320043921470642,-10.032506942749023,3.336193084716797
1764544911727423500,10.490423583984375,-0.760917603969574,-9.835697174072266,3.34576416015625
1764544911744173300,10.50717333984375,-0.39840495586395264,-9.714262008666992,3.22552490234375
1764544911760945700,10.523945556640625,-0.04366901144385338,-9.756135940551758,3.095116138458252
1764544911777701000,10.540701171875,0.16929219663143158,-9.980463027954102,3.1076784133911133
1764544911794462700,10.557462646484375,0.364905446767807,-10.372885704040527,3.1339993476867676
1764544911811224600,10.574224609375,0.47676992416381836,-10.578070640563965,3.118446111679077
1764544911827984000,10.59098388671875,0.527019202709198,-10.319047927856445,3.0143582820892334
1764544911844746000,10.60774609375,0.4893322288990021,-9.911669731140137,2.9012975692749023
1764544911861507300,10.62450732421875,0.45284169912338257,-9.609575271606445,2.8791637420654297
1764544911878268400,10.641268310546875,0.3696911036968231,-9.376275062561035,3.0717861652374268
1764544911895018000,10.65801806640625,0.39182472229003906,-9.156734466552734,3.22552490234375
1764544911911791400,10.674791259765625,0.5228317379951477,-8.840283393859863,3.236292600631714
1764544911928551200,10.69155126953125,0.6885347366333008,-8.676374435424805,3.050250768661499
1764544911945312800,10.708312744140626,0.8273184299468994,-8.703293800354004,2.843869686126709
1764544911962068000,10.72506787109375,1.033101201057434,-8.70209789276123,2.661417007446289
1764544911978841900,10.741841796875,1.3142578601837158,-8.628518104553223,2.417349100112915
1764544911995596300,10.75859619140625,1.5332010984420776,-8.511868476867676,2.1780667304992676
1764544912012358700,10.775358642578125,1.7676976919174194,-8.514859199523926,2.014756679534912
1764544912029118500,10.792118408203125,2.029113531112671,-8.763114929199219,1.9980069398880005
1764544912045880300,10.80888037109375,2.311466693878174,-9.208778381347656,2.263011932373047
1764544912062641400,10.825641357421874,2.445464849472046,-9.588638305664062,2.6673989295959473
1764544912079402200,10.84240234375,2.4047868251800537,-9.729815483093262,3.1208388805389404
1764544912096163600,10.85916357421875,2.3054845333099365,-9.779465675354004,3.417548894882202
1764544912112925400,10.875925537109374,2.1948165893554688,-9.68076229095459,3.6430723667144775
1764544912129685800,10.892685791015625,2.1032910346984863,-9.57607650756836,3.820739507675171
1764544912146414300,10.909414306640626,1.9058831930160522,-9.42891788482666,3.888935089111328
1764544912163208700,10.926208740234374,1.6061822175979614,-9.213563919067383,3.8530426025390625
1764544912179977500,10.9429775390625,1.3298112154006958,-8.912068367004395,3.6640095710754395
1764544912196730600,10.959730712890625,1.0480563640594482,-8.533403396606445,3.4893336296081543
1764544912213492700,10.97649267578125,0.8620143532752991,-8.14098072052002,3.3535408973693848
1764544912230259700,10.993259765625,0.8446664214134216,-7.872386455535889,3.273381471633911
1764544912247008000,11.010008056640626,0.9487541913986206,-7.704888820648193,3.4031920433044434
1764544912263775500,11.026775390625,1.1228320598602295,-7.787441253662109,3.6460635662078857
1764544912280536800,11.043536865234374,1.23589289188385,-8.003992080688477,3.988835334777832
1764544912297297700,11.060297607421875,1.2813565731048584,-8.130212783813477,4.3417768478393555
1764544912314034400,11.077034423828126,1.292722463607788,-8.308478355407715,4.613960266113281
1764544912330819600,11.093819580078126,1.256830096244812,-8.46760082244873,4.8089752197265625
1764544912347582000,11.11058203125,1.1479566097259521,-8.598010063171387,4.986044406890869
1764544912364343000,11.127343017578125,1.0157532691955566,-8.73320484161377,5.095515727996826
1764544912381103900,11.144103759765626,0.8727820515632629,-8.83370304107666,5.047659397125244
1764544912397854700,11.160854736328124,0.7483552694320679,-8.933603286743164,4.813162803649902
1764544912414627000,11.177626953125,0.656829833984375,-8.980263710021973,4.517050743103027
1764544912431361300,11.194361328125,0.5928218364715576,-8.888139724731445,4.216153621673584
1764544912448148700,11.211148681640625,0.45164528489112854,-8.681160926818848,3.988237142562866
1764544912464909800,11.227909912109375,0.27696922421455383,-8.484949111938477,3.8081772327423096
1764544912481671000,11.2446708984375,0.20757736265659332,-8.321639060974121,3.6987056732177734
1764544912498431700,11.261431640625,0.27397820353507996,-8.25404167175293,3.651447296142578
1764544912515194000,11.278194091796875,0.26979073882102966,-8.278568267822266,3.6987056732177734
1764544912531954200,11.2949541015625,0.3403790295124054,-8.60877799987793,3.81655216217041
1764544912548716000,11.311716064453124,0.3523431420326233,-8.858229637145996,3.834498405456543
1764544912565479000,11.32847900390625,0.48454657196998596,-9.126225471496582,3.947559118270874
1764544912582236000,11.34523583984375,0.6831508874893188,-9.31884765625,4.223331928253174
1764544912598999000,11.3619990234375,0.8817551732063293,-9.449256896972656,4.557130813598633
1764544912615761400,11.378761474609375,1.0492527484893799,-9.340383529663086,4.906482696533203
1764544912632521000,11.39552099609375,1.067797064781189,-9.145368576049805,5.208576679229736
1764544912649245000,11.412244873046875,1.1808580160140991,-8.934800148010254,5.352744102478027
1764544912666044400,11.42904443359375,1.211964726448059,-8.6907320022583,5.338985443115234
1764544912682784300,11.4457841796875,1.205384373664856,-8.47477912902832,5.254040241241455
1764544912699566600,11.462566650390626,1.2370892763137817,-8.34018325805664,5.115854740142822
1764544912716328400,11.479328369140624,1.2544373273849487,-8.209176063537598,4.83888578414917
1764544912733088800,11.4960888671875,1.2729816436767578,-8.222336769104004,4.613960266113281
1764544912749839000,11.512839111328125,1.399801254272461,-8.493922233581543,4.354339122772217
1764544912766622500,11.52962255859375,1.404586911201477,-9.067601203918457,4.198805332183838
1764544912783372800,11.546372802734375,1.4416756629943848,-9.506684303283691,3.8949170112609863
1764544912800133400,11.56313330078125,1.5296118259429932,-9.797411918640137,3.635295867919922
1764544912816895700,11.579895751953124,1.5553346872329712,-10.021141052246094,3.4378879070281982
1764544912833656000,11.596656005859375,1.4602199792861938,-10.121041297912598,3.2751760482788086
1764544912850417400,11.61341748046875,1.1676974296569824,-10.164710998535156,3.1280174255371094
1764544912867178000,11.630177978515626,0.924227774143219,-10.274182319641113,2.912663459777832
1764544912883939800,11.64693994140625,0.8374879360198975,-10.321440696716309,2.726621389389038
1764544912900681700,11.663681640625,1.1252248287200928,-10.39621639251709,2.5196423530578613
1764544912917463000,11.680463134765626,1.5212370157241821,-10.236495018005371,2.3611178398132324
1764544912934248200,11.697248291015624,1.690529227256775,-9.929018020629883,2.300100803375244
1764544912950984700,11.713984619140625,1.7485551834106445,-9.44028377532959,2.273181438446045
1764544912967745800,11.730745849609375,1.6103696823120117,-9.056833267211914,2.0889341831207275
1764544912984507400,11.74750732421875,1.5326029062271118,-8.501100540161133,1.9627127647399902
1764544913001266400,11.764266357421874,1.3226326704025269,-8.103293418884277,1.8263218402862549
1764544913018030800,11.78103076171875,1.043868899345398,-8.056035995483398,1.7126628160476685
1764544913034791000,11.797791015625,0.7585247755050659,-8.328817367553711,1.540379524230957
1764544913051551700,11.8145517578125,0.37866419553756714,-8.73200798034668,1.482353687286377
1764544913068313300,11.831313232421875,0.09690931439399719,-9.30329418182373,1.6767704486846924
1764544913085074400,11.848074462890626,-0.03888336941599846,-10.066604614257812,2.0033907890319824
1764544913101834800,11.864834716796874,-0.061016976833343506,-10.6295166015625,2.431107759475708
1764544913118596600,11.8815966796875,-0.059820566326379776,-10.546365737915039,3.1441688537597656
1764544913135358000,11.89835791015625,0.13579268753528595,-10.308877944946289,3.675375461578369
1764544913152095500,11.915095458984375,0.5174478888511658,-10.125826835632324,3.6945180892944336
1764544913168880000,11.931880126953125,0.9888339638710022,-9.903294563293457,3.411566972732544
1764544913185638000,11.948637939453125,1.181456208229065,-9.533005714416504,3.2069804668426514
1764544913202402000,11.965402099609374,0.9643075466156006,-8.97667407989502,2.9377880096435547
1764544913219164400,11.982164306640625,0.617946445941925,-8.367700576782227,2.6117658615112305
1764544913235925500,11.998925537109375,0.28235307335853577,-7.95134973526001,2.3946173191070557
1764544913252682500,12.0156826171875,-0.030508488416671753,-7.779664516448975,2.3916261196136475
1764544913269453800,12.032453857421874,-0.3601198196411133,-7.867600917816162,2.5645077228546143
1764544913286208800,12.049208740234375,-0.6071787476539612,-8.0081787109375,2.7415764331817627
1764544913302969000,12.065968994140626,-0.7345965504646301,-8.167900085449219,2.98085880279541
1764544913319731500,12.0827314453125,-0.6460621356964111,-8.34138011932373,3.2853455543518066
1764544913336492000,12.099491943359375,-0.2841476798057556,-8.551948547363281,3.5605201721191406
1764544913353257500,12.116257568359375,0.27756741642951965,-8.594420433044434,3.668795347213745
1764544913370012700,12.1330126953125,0.5892325639724731,-8.641080856323242,3.662813186645508
1764544913386778400,12.1497783203125,0.4785645306110382,-8.598010063171387,3.5820555686950684
1764544913403511800,12.16651171875,0.0364905446767807,-8.469993591308594,3.559921979904175
1764544913420298800,12.183298828125,-0.33918261528015137,-8.2695951461792,3.514458179473877
1764544913437064000,12.20006396484375,-0.4660021960735321,-8.101499557495117,3.391227960586548
1764544913453795600,12.216795654296876,-0.5760720372200012,-8.14516830444336,3.352942705154419
1764544913470581800,12.233581787109374,-0.4426721930503845,-8.466404914855957,3.566502094268799
1764544913487343400,12.25034326171875,-0.09631111472845078,-9.112466812133789,3.6915271282196045
1764544913504098000,12.26709814453125,0.27816563844680786,-9.67657470703125,3.692723512649536
1764544913520871700,12.28387158203125,0.666999340057373,-10.202397346496582,3.765106439590454
1764544913537626400,12.30062646484375,0.8847461938858032,-10.423135757446289,3.8877387046813965
1764544913554388500,12.317388427734375,0.5539384484291077,-10.423733711242676,3.9176487922668457
1764544913571149000,12.334149169921876,-0.09451649338006973,-10.253843307495117,3.9589250087738037
1764544913587911000,12.350910888671875,-0.6915257573127747,-9.92961597442627,3.9050865173339844
1764544913604646000,12.36764599609375,-1.0432707071304321,-9.823135375976562,3.5336008071899414
1764544913621424600,12.384424560546876,-1.1443674564361572,-9.837491989135742,3.4235310554504395
1764544913638201900,12.401201904296874,-1.0354939699172974,-9.726225852966309,3.3092737197875977
1764544913654952700,12.41795263671875,-1.0037890672683716,-9.525228500366211,3.2620155811309814
1764544913671716600,12.434716552734375,-0.9822536706924438,-9.332606315612793,3.1244282722473145
1764544913688452400,12.451452392578124,-0.8877372145652771,-9.22134017944336,2.995215654373169
1764544913705238300,12.46823828125,-0.7184450030326843,-9.3457670211792,2.998805046081543
1764544913721994500,12.484994384765624,-0.43130627274513245,-9.748359680175781,3.2781670093536377
1764544913738767000,12.50176708984375,0.04785645380616188,-10.141380310058594,3.61435866355896
1764544913755520300,12.518520263671874,0.4773681163787842,-10.475777626037598,3.7118661403656006
1764544913772286000,12.535285888671876,0.6197410821914673,-10.820343971252441,3.6670007705688477
1764544913789045200,12.552045166015626,0.5964110493659973,-10.925029754638672,3.6089746952056885
1764544913805805600,12.5688056640625,0.5461617708206177,-10.680961608886719,3.614956855773926
1764544913822568000,12.58556787109375,0.5359922647476196,-10.111470222473145,3.675375461578369
1764544913839328800,12.602328857421876,0.7447660565376282,-9.354142189025879,3.6017963886260986
1764544913856094000,12.619093994140625,1.0145567655563354,-8.552546501159668,3.418147087097168
1764544913872851200,12.635851318359375,1.0785647630691528,-7.8041911125183105,3.077169895172119
1764544913889606100,12.652606201171874,1.1341979503631592,-7.237092018127441,2.715853691101074
1764544913906379300,12.669379150390625,1.0887342691421509,-7.039085865020752,2.358126640319824
1764544913923135000,12.686135009765625,1.1461620330810547,-7.133602619171143,2.104487419128418
1764544913939892200,12.702892333984375,1.3878371715545654,-7.338188648223877,2.026122570037842
1764544913956646400,12.719646484375,1.6474584341049194,-7.8179497718811035,2.4053850173950195
1764544913973422800,12.7364228515625,1.8861424922943115,-8.611170768737793,3.0801608562469482
1764544913990179600,12.7531796875,2.0572292804718018,-9.245866775512695,3.7746777534484863
1764544914006935000,12.76993505859375,2.2444677352905273,-9.68794059753418,4.211966037750244
1764544914023708000,12.7867080078125,2.410768747329712,-9.92423152923584,4.650450706481934
1764544914040462800,12.803462890625,2.4837498664855957,-9.940383911132812,4.994419097900391
1764544914057224200,12.82022412109375,2.290529489517212,-9.79681396484375,4.981258392333984
1764544914073960200,12.836960205078125,1.7276179790496826,-9.611370086669922,4.893322467803955
1764544914090741000,12.853740966796876,1.2598211765289307,-9.352347373962402,4.551746845245361
1764544914107500800,12.870500732421876,0.9762716293334961,-8.891130447387695,4.0666022300720215
1764544914124278300,12.8872783203125,0.7872386574745178,-8.295916557312012,3.644867181777954
1764544914141029600,12.904029541015625,0.5802595019340515,-7.697112083435059,3.4857444763183594
1764544914157777700,12.920777587890624,0.48454657196998596,-7.2095746994018555,3.6221351623535156
1764544914174560800,12.937560791015626,0.4654040038585663,-7.152745246887207,3.799204111099243
1764544914191290400,12.954290283203125,0.5497509837150574,-7.378866672515869,4.027718544006348
1764544914208067600,12.971067626953126,0.6161518096923828,-7.734200954437256,4.274179458618164
1764544914224843800,12.98784375,0.6532405614852905,-8.099106788635254,4.511667251586914
1764544914241597400,13.004597412109375,0.6574280261993408,-8.445467948913574,4.806582450866699
1764544914258353200,13.021353271484376,0.7286145091056824,-8.791828155517578,5.172684192657471
1764544914275127000,13.038126953125,0.7794619798660278,-8.999405860900879,5.516054630279541
1764544914291881700,13.0548818359375,0.7040880918502808,-9.09093189239502,5.616552829742432
1764544914308632600,13.071632568359375,0.646660327911377,-9.134002685546875,5.544768333435059
1764544914325414100,13.0884140625,0.5353940725326538,-9.052047729492188,5.344369411468506
1764544914342133200,13.10513330078125,0.37806597352027893,-8.71645450592041,5.14576530456543
1764544914358904800,13.12190478515625,0.24945175647735596,-8.36590576171875,4.913661479949951
1764544914375657500,13.138657470703125,0.13579268753528595,-8.034500122070312,4.71445894241333
1764544914392409000,13.1554091796875,0.061016976833343506,-7.770691394805908,4.481756687164307
1764544914409195500,13.172195556640625,0.005982056725770235,-7.601997375488281,4.2484564781188965
1764544914425977600,13.1889775390625,0.020937198773026466,-7.701898097991943,4.133002758026123
1764544914442744000,13.205744140625,0.03768695518374443,-7.984251022338867,4.083950042724609
1764544914459492600,13.22249267578125,0.12801600992679596,-8.380861282348633,4.048057556152344
1764544914476262400,13.239262451171875,0.24646073579788208,-8.754739761352539,4.131806373596191
1764544914493016300,13.256016357421874,0.373878538608551,-8.989236831665039,4.207180500030518
1764544914509770800,13.272770751953125,0.3936193287372589,-9.004789352416992,4.388436794281006
1764544914526545000,13.289544921875,0.3152543902397156,-8.790632247924805,4.681557655334473
1764544914543299300,13.30629931640625,0.41156548261642456,-8.705686569213867,5.026124000549316
1764544914560051500,13.323051513671874,0.5694918036460876,-8.61595630645752,5.346164226531982
1764544914576831500,13.33983154296875,0.6358926296234131,-8.506484031677246,5.533402442932129
1764544914593583600,13.35658349609375,0.9930213689804077,-8.242077827453613,5.519045352935791
1764544914610335700,13.373335693359374,1.2346965074539185,-8.015357971191406,5.341976642608643
1764544914627114500,13.390114501953125,1.1527422666549683,-7.967501163482666,5.294718265533447
1764544914643867100,13.4068671875,0.9810572862625122,-8.116454124450684,5.213362216949463
1764544914660620500,13.42362060546875,0.9768698215484619,-8.220541954040527,5.050650596618652
1764544914677397200,13.440397216796875,0.9601200819015503,-8.455039024353027,5.020740032196045
1764544914694128600,13.457128662109374,1.0163514614105225,-8.837890625,4.985445976257324
1764544914710911500,13.473911376953126,0.99481600522995,-9.157930374145508,4.820939540863037
1764544914727647700,13.490647705078125,0.9960124492645264,-9.300901412963867,4.686343193054199
1764544914744434200,13.50743408203125,1.077966570854187,-9.387042999267578,4.609174728393555
1764544914761190000,13.52418994140625,1.1599208116531372,-9.41037368774414,4.618745803833008
1764544914777962800,13.540962646484376,1.1581261157989502,-9.294919967651367,4.494917392730713
1764544914794692900,13.55769287109375,1.0803594589233398,-9.21834945678711,4.3758745193481445
1764544914811470600,13.574470703125,1.0564311742782593,-9.245866775512695,4.203591346740723
1764544914828249300,13.591249267578124,1.0432707071304321,-9.407979965209961,4.040280818939209
1764544914845001500,13.60800146484375,0.9762716293334961,-9.488738059997559,3.8727834224700928
1764544914861755000,13.6247548828125,0.9762716293334961,-9.512067794799805,3.6574294567108154
1764544914878531800,13.64153173828125,0.9565308690071106,-9.506086349487305,3.4857444763183594
1764544914895285500,13.658285400390625,1.0612168312072754,-9.495318412780762,3.2793633937835693
1764544914912039700,13.675039794921876,1.2287144660949707,-9.460622787475586,3.1549365520477295
1764544914928815000,13.691815185546876,1.4039887189865112,-9.249456405639648,3.174079179763794
1764544914945540000,13.7085400390625,1.409970760345459,-9.430712699890137,3.0346972942352295
1764544914962327600,13.72532763671875,1.3519448041915894,-9.42054271697998,2.819941520690918
1764544914979087600,13.742087646484375,1.2352946996688843,-9.323633193969727,2.4765713214874268
1764544914995853000,13.75885302734375,1.1922239065170288,-8.910273551940918,2.215155601501465
1764544915012607500,13.775607421875,1.1276177167892456,-8.73200798034668,1.929213285446167
1764544915029382100,13.792382080078125,0.9690931439399719,-8.784051895141602,1.6809579133987427
1764544915046130200,13.809130126953125,0.7704889178276062,-9.05264663696289,1.6516457796096802
1764544915062904000,13.825904052734375,0.6406782865524292,-9.470193862915039,1.8221344947814941
1764544915079658800,13.84265869140625,0.7519445419311523,-10.017552375793457,2.173281192779541
1764544915096420600,13.859420654296875,0.9020941257476807,-10.579267501831055,2.486142635345459
1764544915113181200,13.87618115234375,0.890728235244751,-10.872387886047363,2.7379872798919678
1764544915129937200,13.892937255859374,0.6729813814163208,-10.53918743133545,3.0418758392333984
1764544915146710300,13.909710205078126,0.5467599630355835,-9.80817985534668,3.303889751434326
1764544915163456000,13.9264560546875,0.5359922647476196,-9.19980525970459,3.2823543548583984
1764544915180235500,13.943235595703126,0.5246263742446899,-8.979066848754883,3.1830523014068604
1764544915196959700,13.959959716796876,0.6005984544754028,-8.978468894958496,3.0969107151031494
1764544915213694200,13.976694091796874,0.7579265832901001,-8.948558807373047,2.8384859561920166
1764544915230500600,13.99350048828125,0.8614161610603333,-8.807381629943848,2.475374937057495
1764544915247271200,14.010271240234376,0.6717849373817444,-8.643473625183105,2.1846470832824707
1764544915264031700,14.02703173828125,0.27337998151779175,-8.558527946472168,2.1337995529174805
1764544915280794400,14.04379443359375,-0.12382857501506805,-8.555537223815918,2.307279348373413
1764544915297549800,14.0605498046875,-0.3529413342475891,-8.609973907470703,2.5088746547698975
1764544915314322400,14.077322509765626,-0.3762713670730591,-8.620741844177246,2.74755859375
1764544915331078000,14.094077880859375,-0.355932354927063,-8.669795036315918,3.005983352661133
1764544915347838500,14.11083837890625,-0.268594354391098,-8.723034858703613,3.2440693378448486
1764544915364601300,14.127601318359375,-0.15254244208335876,-8.804988861083984,3.449253797531128
1764544915381360400,14.1443603515625,-0.046061836183071136,-8.858229637145996,3.5874392986297607
1764544915398122800,14.161122802734376,-0.06580262631177902,-8.852845191955566,3.477369546890259
1764544915414875400,14.17787548828125,-0.2315055876970291,-8.612964630126953,3.2829527854919434
1764544915431654100,14.194654052734375,-0.5030909776687622,-8.283353805541992,3.218346357345581
1764544915448380400,14.21138037109375,-0.6855437159538269,-8.24985408782959,3.142972469329834
1764544915465159700,14.22815966796875,-0.8291130661964417,-8.260622024536133,3.243471145629883
1764544915481901300,14.2449013671875,-0.8997012972831726,-8.299505233764648,3.4444682598114014
1764544915498690600,14.261690673828125,-0.8691928386688232,-8.449056625366211,3.672982692718506
1764544915515451100,14.278451171875,-0.5659025311470032,-8.58784008026123,3.7956149578094482
1764544915532213200,14.295213134765625,-0.20877377688884735,-8.816953659057617,3.779463291168213
1764544915548974600,14.311974609375,-0.11964113265275955,-9.123234748840332,3.792025566101074
1764544915565735000,14.32873486328125,-0.19381862878799438,-9.325428009033203,3.9828531742095947
1764544915582495500,14.34549560546875,-0.42293140292167664,-9.379266738891602,4.107280254364014
1764544915599263700,14.362263671875,-0.7854440212249756,-9.638289451599121,3.9876389503479004
1764544915616001300,14.379001220703126,-0.9822536706924438,-8.994022369384766,4.398007869720459
1764544915632791800,14.395791748046875,-1.2729816436767578,-8.636295318603516,4.4482574462890625
1764544915649533400,14.412533447265625,-1.4991034269332886,-8.531010627746582,4.411168575286865
1764544915666299400,14.42929931640625,-1.6767704486846924,-8.516654014587402,4.30169677734375
1764544915683074600,14.446074462890625,-1.8233308792114258,-8.827122688293457,4.061816215515137
1764544915699808000,14.46280810546875,-1.6157535314559937,-9.013164520263672,3.9840497970581055
1764544915716569300,14.4795693359375,-1.306481122970581,-9.293723106384277,3.7567315101623535
1764544915733350100,14.49635009765625,-0.9936196208000183,-9.588040351867676,3.352942705154419
1764544915750108700,14.513108642578125,-0.722034215927124,-10.01575756072998,2.9001009464263916
1764544915766869000,14.529868896484375,-0.4139583110809326,-10.755738258361816,2.6566312313079834
1764544915783632600,14.546632568359374,-0.11605189740657806,-11.804391860961914,2.7224340438842773
1764544915800383500,14.563383544921875,0.38644084334373474,-12.20638656616211,2.9772696495056152
1764544915817162800,14.580162841796875,0.8536394834518433,-11.92762279510498,3.039483070373535
1764544915833890600,14.596890625,1.0301101207733154,-11.300105094909668,3.132802963256836
1764544915850675700,14.61367578125,0.885344386100769,-10.625926971435547,3.232105255126953
1764544915867438000,14.63043798828125,0.6969096064567566,-9.965508460998535,3.250051259994507
1764544915884198700,14.64719873046875,0.6167500615119934,-9.127422332763672,3.16331148147583
1764544915900960000,14.6639599609375,0.7034898400306702,-8.183453559875488,3.0382864475250244
1764544915917721600,14.6807216796875,0.8632107973098755,-7.396812915802002,2.8737800121307373
1764544915934482200,14.697482177734376,0.9768698215484619,-6.791429042816162,2.599203586578369
1764544915951234600,14.714234619140624,1.1174482107162476,-6.560521602630615,2.3844478130340576
1764544915967993300,14.730993408203124,1.4015958309173584,-6.722036838531494,2.334796667098999
1764544915984747500,14.74774755859375,1.8191434144973755,-7.271788120269775,2.3982064723968506
1764544916001527800,14.76452783203125,2.283350944519043,-8.181060791015625,2.492722988128662
1764544916018284800,14.781284912109374,2.681756019592285,-9.162715911865234,2.7451658248901367
1764544916035054300,14.798054443359375,2.9419753551483154,-9.742975234985352,3.057429075241089
1764544916051801000,14.814801025390626,2.8217360973358154,-10.17009449005127,3.2518460750579834
1764544916068579600,14.83157958984375,2.6811578273773193,-10.430912017822266,3.5712878704071045
1764544916085336800,14.8483369140625,2.534597396850586,-10.453643798828125,4.164707660675049
1764544916102095400,14.865095458984374,2.2845473289489746,-10.302896499633789,4.577469825744629
1764544916118854100,14.881854248046874,1.9453648328781128,-9.882357597351074,4.52781867980957
1764544916135620000,14.8986201171875,1.5296118259429932,-9.077771186828613,4.2987060546875
1764544916152378400,14.91537841796875,1.210768222808838,-8.396414756774902,3.8769710063934326
1764544916169138400,14.932138427734374,1.0707881450653076,-7.868198871612549,3.5024940967559814
1764544916185902600,14.948902587890625,1.0097711086273193,-7.560721397399902,3.2793633937835693
1764544916202637600,14.965637451171874,0.9607182741165161,-7.451249599456787,3.3517463207244873
1764544916219392300,14.982392333984375,0.9487541913986206,-7.677371501922607,3.5371899604797363
1764544916236164600,14.99916455078125,1.0109676122665405,-8.028517723083496,3.888935089111328
1764544916252946000,15.01594580078125,1.095314621925354,-8.302495956420898,4.140779495239258
1764544916269696500,15.032696533203126,1.174277663230896,-8.518448829650879,4.3070807456970215
1764544916286479400,15.049479248046875,1.2430713176727295,-8.648259162902832,4.406980991363525
1764544916303228200,15.066228271484375,1.2490534782409668,-8.763712882995605,4.502095699310303
1764544916319977000,15.08297705078125,1.174277663230896,-8.922237396240234,4.606781959533691
1764544916336763400,15.099763427734375,1.042074203491211,-9.119047164916992,4.658825874328613
1764544916353507300,15.11650732421875,0.9756734371185303,-9.195018768310547,4.510470867156982
1764544916370252800,15.133252685546875,0.9355936646461487,-9.084351539611816,4.381856441497803
1764544916387046000,15.1500458984375,0.8374879360198975,-8.868398666381836,4.220340728759766
1764544916403798000,15.166798095703125,0.7244270443916321,-8.657232284545898,4.030709743499756
1764544916420517400,15.183517333984375,0.6514459848403931,-8.532207489013672,3.868596076965332
1764544916437329200,15.2003291015625,0.664606511592865,-8.47896671295166,3.768695592880249
1764544916454055400,15.217055419921875,0.698704183101654,-8.507680892944336,3.710669755935669
1764544916470798600,15.233798583984376,0.6897311210632324,-8.583653450012207,3.67238450050354
1764544916487578000,15.250578125,0.6472585201263428,-8.655437469482422,3.6532418727874756
1764544916504365000,15.267364990234375,0.6047859191894531,-8.765507698059082,3.6047873497009277
1764544916521122000,15.2841220703125,0.638883650302887,-8.790632247924805,3.8051862716674805
1764544916537892900,15.300892822265626,0.6107679605484009,-8.743971824645996,4.035495281219482
1764544916554642700,15.317642578125,0.633499801158905,-8.57767105102539,4.3280181884765625
1764544916571393000,15.33439306640625,0.7722834944725037,-8.482556343078613,4.628915309906006
1764544916588179000,15.351178955078124,0.973878800868988,-8.402397155761719,4.996811866760254
1764544916604932600,15.3679326171875,1.347757339477539,-8.36411190032959,5.105685234069824
1764544916621663000,15.3846630859375,1.5541383028030396,-8.429914474487305,5.023731231689453
1764544916638462000,15.4014619140625,1.5601203441619873,-8.629714965820312,4.822135925292969
1764544916655216400,15.41821630859375,1.563111424446106,-8.97368335723877,4.561916351318359
1764544916671950300,15.434950439453125,1.534995675086975,-9.17288589477539,4.188037872314453
1764544916688741400,15.451741455078125,1.4835500717163086,-9.358329772949219,3.9146578311920166
1764544916705500700,15.468500732421875,1.4991034269332886,-9.496515274047852,3.7944185733795166
1764544916722235400,15.4852353515625,1.4997016191482544,-9.606584548950195,3.7848472595214844
1764544916738998300,15.501998291015624,1.495514154434204,-9.664012908935547,3.7363924980163574
1764544916755784200,15.5187841796875,1.4811571836471558,-9.659226417541504,3.7220356464385986
1764544916772521000,15.53552099609375,1.5242279767990112,-9.678967475891113,3.779463291168213
1764544916789305000,15.55230517578125,1.5002998113632202,-9.640682220458984,3.8081772327423096
1764544916806069500,15.569069580078125,1.4895321130752563,-9.53061294555664,3.7944185733795166
1764544916822790100,15.5857900390625,1.4075778722763062,-9.520442962646484,3.6610186100006104
1764544916839598600,15.6025986328125,1.4111671447753906,-9.419346809387207,3.5228331089019775
1764544916856355000,15.61935498046875,1.4865410327911377,-9.332008361816406,3.336193084716797
1764544916873076500,15.636076416015625,1.576870083808899,-9.273384094238281,3.149552822113037
1764544916889879000,15.652879150390625,1.690529227256775,-9.19023323059082,2.93001127243042
1764544916906642200,15.66964208984375,1.8245272636413574,-9.223134994506836,2.8002007007598877
1764544916923362300,15.6863623046875,1.9926230907440186,-9.293723106384277,2.7086751461029053
1764544916940165000,15.7031650390625,2.1469600200653076,-9.412766456604004,2.592623233795166
1764544916956923000,15.7199228515625,2.2331018447875977,-9.478569030761719,2.4532413482666016
1764544916973654800,15.73665478515625,2.2582263946533203,-9.635896682739258,2.3090739250183105
1764544916990444000,15.753444091796876,2.134995937347412,-9.817750930786133,2.145763635635376
1764544917007203300,15.770203369140624,1.8987047672271729,-9.716055870056152,1.7838492393493652
1764544917023988700,15.78698876953125,1.5122638940811157,-9.485149383544922,1.4368900060653687
1764544917040727000,15.80372705078125,1.1736794710159302,-9.235696792602539,1.1425727605819702
1764544917057486800,15.82048681640625,1.046859860420227,-9.035298347473145,1.1443674564361572
1764544917074222300,15.837222412109375,0.9373882412910461,-9.060422897338867,1.3692927360534668
1764544917091003600,15.854003662109376,0.6149554252624512,-9.312267303466797,1.679761528968811
1764544917107777500,15.870777587890625,0.29790642857551575,-9.630513191223145,2.066800594329834
1764544917124506400,15.88750634765625,0.14416755735874176,-9.91705322265625,2.71645188331604
1764544917141292000,15.9042919921875,0.4217349886894226,-10.268798828125,3.345165967941284
1764544917158055700,15.9210556640625,0.8231309652328491,-10.575079917907715,3.5718860626220703
1764544917174826200,15.937826171875,1.3004990816116333,-10.344172477722168,3.6670007705688477
1764544917191577000,15.9545771484375,1.4871392250061035,-9.840482711791992,3.525225877761841
1764544917208345300,15.971345458984375,1.4207384586334229,-9.494122505187988,3.2446675300598145
1764544917225108000,15.98810791015625,1.1431710720062256,-9.105886459350586,2.927020311355591
1764544917241875200,16.004875244140624,0.7214360237121582,-8.688339233398438,2.571686029434204
1764544917258628000,16.021628173828127,0.2967100143432617,-8.45324420928955,2.196611166000366
1764544917275362000,16.038362060546874,0.001794616924598813,-8.21874713897705,2.0404794216156006
1764544917292144400,16.055144287109375,-0.22911277413368225,-8.133204460144043,2.0512471199035645
1764544917308906000,16.071906005859375,-0.33858439326286316,-8.172685623168945,2.166102647781372
1764544917325663200,16.088663330078123,-0.31824541091918945,-8.274380683898926,2.4095723628997803
1764544917342428000,16.105427978515625,-0.3409772217273712,-8.289934158325195,2.715853691101074
1764544917359195000,16.12219482421875,-0.4217349886894226,-8.315656661987305,2.9934210777282715
1764544917375950000,16.1389501953125,-0.4983053207397461,-8.24985408782959,3.218944549560547
1764544917392714000,16.1557138671875,-0.5353940725326538,-8.421539306640625,3.0795626640319824
1764544917409472500,16.172472412109375,-0.5748756527900696,-8.203194618225098,3.3720853328704834
1764544917426233300,16.1892333984375,-0.6807580590248108,-8.207980155944824,3.339184045791626
1764544917442989600,16.205989501953123,-0.8279166221618652,-8.299505233764648,3.3583266735076904
1764544917459763500,16.222763427734375,-0.9266205430030823,-8.510671615600586,3.362514019012451
1764544917476507400,16.23950732421875,-0.9505487680435181,-8.459226608276367,3.6735808849334717
1764544917493260500,16.256260498046874,-0.8703892230987549,-8.259425163269043,3.9565322399139404
1764544917510043400,16.27304345703125,-0.6245267391204834,-8.331210136413574,4.122833251953125
1764544917526775800,16.28977587890625,-0.32542386651039124,-8.532207489013672,4.2209391593933105
1764544917543534000,16.3065341796875,-0.11126625537872314,-8.900103569030762,4.194618225097656
1764544917560299800,16.3232998046875,-0.14715859293937683,-9.125029563903809,4.208376884460449
1764544917577084700,16.340084716796873,-0.47976094484329224,-9.437292098999023,4.183850288391113
1764544917593801700,16.3568017578125,-1.0426725149154663,-9.716654777526855,4.141377925872803
1764544917610574600,16.37357470703125,-1.4626128673553467,-10.031908988952637,3.8255252838134766
1764544917627327200,16.3903271484375,-1.7048860788345337,-10.347163200378418,3.480360507965088
1764544917644141600,16.4071416015625,-1.4787644147872925,-10.512866020202637,3.1680972576141357
1764544917660892700,16.423892578125,-1.1826525926589966,-10.495518684387207,2.822932481765747
1764544917677617700,16.44061767578125,-1.0319048166275024,-10.302297592163086,2.531606435775757
1764544917694422300,16.45742236328125,-0.865005373954773,-10.25324535369873,2.359323024749756
1764544917711177000,16.474177001953127,-0.6897311210632324,-10.549955368041992,2.3814568519592285
1764544917727883300,16.49088330078125,-0.3152543902397156,-11.014760971069336,2.703291416168213
1764544917744677600,16.507677734375,0.22552353143692017,-11.34078311920166,3.1064820289611816
1764544917761466400,16.52446630859375,0.6317051649093628,-11.177473068237305,3.2781670093536377
1764544917786608400,16.5496083984375,0.5383850932121277,-10.341180801391602,3.5162527561187744
1764544917803347500,16.566347412109376,0.26440688967704773,-9.757332801818848,3.4959139823913574
1764544917820126000,16.5831259765625,0.004785645287483931,-9.2255277633667,3.308077335357666
1764544917836885800,16.5998857421875,-0.0023928226437419653,-8.559126853942871,3.0388846397399902
1764544917853622300,16.616622314453124,0.1788634955883026,-8.049455642700195,2.7487549781799316
1764544917870408700,16.63340869140625,0.3732803463935852,-7.827520847320557,2.562713146209717
1764544917887128600,16.650128662109374,0.5198407173156738,-7.696514129638672,2.289931297302246
1764544917903910100,16.66691015625,0.7824530005455017,-7.71386194229126,2.035693883895874
1764544917920679200,16.68367919921875,1.124626636505127,-7.903493404388428,1.8903298377990723
1764544917937455400,16.700455322265626,1.5182459354400635,-8.017151832580566,1.8693926334381104
1764544917954178800,16.7171787109375,1.8891334533691406,-8.174480438232422,1.9489539861679077
1764544917970988000,16.733988037109373,2.1296122074127197,-8.678768157958984,2.3712873458862305
1764544917987737900,16.75073779296875,2.369492530822754,-9.504889488220215,3.0269205570220947
1764544918004466200,16.767466064453124,2.579462766647339,-10.264012336730957,3.6442689895629883
1764544918021267200,16.78426708984375,2.675773859024048,-10.75394344329834,3.9332022666931152
1764544918038025200,16.801025146484374,2.537588357925415,-10.77966594696045,4.306482315063477
1764544918054760400,16.817760498046876,2.090130567550659,-10.480563163757324,4.587040901184082
1764544918071534000,16.8345341796875,1.5571293830871582,-9.930811882019043,4.447659015655518
1764544918088312800,16.851312744140625,1.2239288091659546,-9.17886734008789,4.194019794464111
1764544918105076500,16.868076416015626,0.9188438653945923,-8.459824562072754,3.9158542156219482
1764544918121832700,16.884832763671874,0.5485545992851257,-7.8658061027526855,3.589832067489624
1764544918138557000,16.901556884765625,0.24167509377002716,-7.396214962005615,3.4067811965942383
1764544918155353000,16.91835302734375,0.137587308883667,-7.04207706451416,3.4085757732391357
1764544918172086000,16.9350859375,0.243469700217247,-7.052844524383545,3.652045488357544
1764544918188878600,16.951878662109376,0.47258245944976807,-7.313064098358154,4.128815650939941
1764544918205617700,16.96861767578125,0.5874379873275757,-7.731209754943848,4.4751763343811035
1764544918222395400,16.9853955078125,0.6059823632240295,-8.11525821685791,4.698307037353516
1764544918239157500,17.002157470703125,0.6287141442298889,-8.441280364990234,4.868795871734619
1764544918255883500,17.018883544921874,0.6897311210632324,-8.738588333129883,4.986642360687256
1764544918272678100,17.03567822265625,0.6251249313354492,-9.021539688110352,5.014159679412842
1764544918289443000,17.052443115234375,0.46839502453804016,-9.189037322998047,4.851448059082031
1764544918306196200,17.0691962890625,0.2225325107574463,-9.131011009216309,4.59421968460083
1764544918322953500,17.085953369140626,0.19202402234077454,-8.995817184448242,4.3752760887146
1764544918339734800,17.10273486328125,0.12263216078281403,-8.788837432861328,4.151547431945801
1764544918356462300,17.11946240234375,0.129810631275177,-8.606385231018066,3.99900484085083
1764544918373247000,17.1362470703125,0.1860419660806656,-8.443074226379395,3.975674867630005
1764544918389984800,17.15298486328125,0.2949153780937195,-8.323433876037598,4.048057556152344
1764544918406751700,17.169751708984375,0.4247260093688965,-8.313861846923828,4.104887008666992
1764544918423506200,17.186506103515626,0.529412031173706,-8.242077827453613,4.214957237243652
1764544918440292600,17.203292724609376,0.5312066078186035,-8.423932075500488,4.175475597381592
1764544918457028600,17.220028564453123,0.2632105052471161,-8.453842163085938,4.30588436126709
1764544918473783800,17.23678369140625,1.350150227546692,-8.801400184631348,4.487140655517578
1764544918490582300,17.253582275390624,1.1802598237991333,-8.562117576599121,4.455435752868652
1764544918507315500,17.2703154296875,-0.6107679605484009,-8.692526817321777,4.603790760040283
1764544918524099000,17.28709912109375,0.13459627330303192,-8.868398666381836,4.791627407073975
1764544918540860700,17.303860595703124,1.1162517070770264,-8.780462265014648,4.961517810821533
1764544918557630000,17.3206298828125,1.2646067142486572,-8.784649848937988,4.90827751159668
1764544918574357500,17.337357421875,1.2675977945327759,-8.949156761169434,5.309075355529785
1764544918591143700,17.354143798828126,1.454836130142212,-8.997013092041016,5.389832973480225
1764544918607921700,17.370921630859375,1.7676976919174194,-8.688339233398438,5.117649555206299
1764544918624667100,17.387667236328124,1.8029918670654297,-9.001798629760742,4.613960266113281
1764544918641387800,17.4043876953125,1.9591234922409058,-9.472586631774902,4.003790378570557
1764544918658182100,17.42118212890625,1.7174484729766846,-9.854840278625488,3.6681971549987793
1764544918674930400,17.437930419921877,1.1611171960830688,-9.865009307861328,3.445066452026367
1764544918691712000,17.4547119140625,0.7070791125297546,-10.61097240447998,2.998206853866577
1764544918708447500,17.471447509765625,0.7226324677467346,-11.280364036560059,2.7080769538879395
1764544918725234000,17.48823388671875,0.9601200819015503,-11.111071586608887,2.5357937812805176
1764544918741990000,17.504989990234375,1.2903295755386353,-10.992627143859863,2.9802606105804443
1764544918758761500,17.521761474609374,1.724626898765564,-10.709675788879395,3.1621150970458984
1764544918775512000,17.538511962890624,1.7665013074874878,-10.100702285766602,3.073580741882324
1764544918792286200,17.5552861328125,1.6671991348266602,-9.432506561279297,2.431705951690674
1764544918809016000,17.57201611328125,1.1724830865859985,-8.529216766357422,1.5810575485229492
1764544918825805800,17.588805908203124,1.0325030088424683,-8.310871124267578,1.8502501249313354
1764544918842565000,17.605565185546876,0.5796613097190857,-7.701299667358398,1.2472587823867798
1764544918859287800,17.622287841796876,-0.018544375896453857,-7.779664516448975,1.2729816436767578
1764544918876086300,17.639086181640625,-0.20039889216423035,-7.743174076080322,1.6420745849609375
1764544918892820700,17.65582080078125,-0.23270200192928314,-8.356932640075684,1.7635103464126587
1764544918909596700,17.6725966796875,-0.357128769159317,-9.696913719177246,2.4364917278289795
1764544918926348500,17.6893486328125,0.09032905846834183,-10.272387504577637,2.915654420852661
1764544918943131400,17.70613134765625,0.37148571014404297,-10.982458114624023,3.322434186935425
1764544918959868700,17.72286865234375,0.3535395562648773,-11.168499946594238,3.197409152984619
1764544918976652000,17.739652099609376,0.5264210104942322,-10.643275260925293,3.5437703132629395
1764544918993409300,17.7564091796875,0.5832505226135254,-10.021141052246094,3.656233072280884
1764544919010164500,17.77316455078125,0.4181457459926605,-9.4061861038208,3.253640651702881
1764544919026912300,17.789912353515625,0.12622138857841492,-8.98385238647461,2.8833513259887695
1764544919043693000,17.806693115234374,-0.2470589429140091,-8.718249320983887,2.197209358215332
1764544919060441000,17.823441162109376,-0.4127618968486786,-8.647661209106445,1.332203984260559
1764544919077216000,17.840216064453124,-0.37447673082351685,-8.59621524810791,1.662413477897644
1764544919093963500,17.856963623046877,-0.41216370463371277,-8.639286041259766,1.6289139986038208
1764544919110718700,17.87371875,-0.12502498924732208,-8.657830238342285,1.594218134880066
1764544919127505400,17.89050537109375,-0.16390834748744965,-8.425128936767578,2.059622049331665
1764544919144249300,17.907249267578123,-0.4019941985607147,-8.395816802978516,2.8109683990478516
1764544919161005000,17.924005126953126,-0.7950153350830078,-8.24686336517334,3.434896945953369
1764544919177763800,17.940763916015626,-1.042074203491211,-8.350353240966797,3.841676712036133
1764544919194550800,17.95755078125,-1.0121639966964722,-8.399405479431152,4.070789337158203
1764544919211289000,17.9742890625,-0.8733802437782288,-8.394021987915039,4.0797624588012695
1764544919228073500,17.991073486328126,-0.7722834944725037,-8.50289535522461,3.8159539699554443
1764544919244825600,18.00782568359375,-0.7046862840652466,-8.645268440246582,3.576073408126831
1764544919261579300,18.024579345703124,-0.7040880918502808,-8.71645450592041,3.48993182182312
1764544919278357500,18.041357421875,-0.8913264274597168,-8.673981666564941,3.500101327896118
1764544919295118800,18.058118896484373,-1.0582258701324463,-8.723034858703613,3.7058839797973633
1764544919311905500,18.074905517578124,-1.072582721710205,-8.695517539978027,3.8781673908233643
1764544919328641300,18.091641357421874,-0.9810572862625122,-8.695517539978027,4.007379531860352
1764544919345403000,18.10840283203125,-0.8009973764419556,-8.944969177246094,4.130012035369873
1764544919362186200,18.125186279296877,-0.45164528489112854,-8.806185722351074,4.359124660491943
1764544919378925000,18.141925048828124,-0.5533402562141418,-8.73918628692627,4.2831525802612305
1764544919395660800,18.158660888671875,-0.8913264274597168,-8.988637924194336,4.254438877105713
1764544919412463600,18.175463623046873,-1.3423734903335571,-8.989236831665039,4.040280818939209
1764544919429184800,18.192184814453125,-1.8885352611541748,-9.620942115783691,3.7190446853637695
1764544919445970400,18.208970458984375,-2.014756679534912,-9.961320877075195,3.689134359359741
1764544919462726100,18.22572607421875,-1.5864413976669312,-10.174880027770996,3.576671600341797
1764544919479499300,18.242499267578125,-1.23589289188385,-10.25503921508789,3.4989049434661865
1764544919496252000,18.259251953125,-0.997208833694458,-10.205986976623535,3.359523057937622
1764544919513005600,18.276005615234375,-0.7507480978965759,-10.419546127319336,3.1902308464050293
1764544919529770800,18.292770751953125,-0.43549370765686035,-10.820941925048828,3.1968109607696533
1764544919546545000,18.309544921875,0.1543370634317398,-11.35214900970459,3.446262836456299
1764544919563299300,18.32629931640625,0.7058826684951782,-11.3509521484375,3.473181962966919
1764544919580061000,18.34306103515625,1.0636097192764282,-10.688738822937012,3.4127633571624756
1764544919596820500,18.359820556640624,1.1377872228622437,-9.945767402648926,3.2440693378448486
1764544919613583000,18.3765830078125,0.7507480978965759,-9.56889820098877,3.3230323791503906
1764544919630345700,18.393345703125,0.2021935135126114,-9.340383529663086,3.2829527854919434
1764544919655493600,18.41849365234375,-0.003589233849197626,-8.927620887756348,2.9796624183654785
1764544919672248000,18.435248046875,0.19561325013637543,-8.34018325805664,2.4699912071228027
1764544919689009200,18.452009033203126,0.49591249227523804,-7.814958572387695,2.03629207611084
1764544919705770500,18.4687705078125,0.631106972694397,-7.46919584274292,1.8029918670654297
1764544919722531600,18.485531494140623,0.8739784955978394,-7.310671329498291,1.817348837852478
1764544919739293700,18.502293701171876,1.064207911491394,-7.033702373504639,2.1433708667755127
1764544919756055000,18.519054931640625,0.989432156085968,-7.193423271179199,2.434697151184082
1764544919772813600,18.5358134765625,1.495514154434204,-7.813164234161377,3.1280174255371094
1764544919789541600,18.552541748046874,2.190030813217163,-8.61894702911377,3.768097400665283
1764544919806338800,18.5693388671875,2.3222343921661377,-9.220742225646973,4.587040901184082
1764544919823083000,18.5860830078125,2.4717857837677,-9.748359680175781,4.828117847442627
1764544919839839500,18.602839599609375,2.3545374870300293,-10.054640769958496,4.716851711273193
1764544919856624000,18.6196240234375,2.097907304763794,-10.312467575073242,4.482355117797852
1764544919873384000,18.636384033203125,1.6169499158859253,-10.212567329406738,4.240679740905762
1764544919890134500,18.653134521484375,1.1778669357299805,-9.982257843017578,3.8937206268310547
1764544919906903800,18.66990380859375,0.6753742098808289,-9.642477035522461,3.624528169631958
1764544919923668200,18.686668212890623,0.3613162338733673,-8.909076690673828,3.380460262298584
1764544919940392700,18.703392822265624,0.10648060590028763,-8.334799766540527,3.2404799461364746
1764544919957190400,18.7201904296875,0.13220344483852386,-7.529614448547363,3.1435706615448
1764544919973926400,18.736926513671875,0.4307080805301666,-7.264011383056641,2.895315408706665
1764544919990672400,18.75367236328125,0.5617151260375977,-7.811967849731445,3.403790235519409
1764544920007473700,18.7704736328125,0.7489534616470337,-7.788637638092041,3.5850465297698975
1764544920024236500,18.787236572265623,0.9158528447151184,-8.139185905456543,3.9080774784088135
1764544920040951600,18.80395166015625,1.0145567655563354,-8.331808090209961,4.184448719024658
1764544920057758500,18.820758544921876,0.97148597240448,-8.769096374511719,4.478765964508057
1764544920074518800,18.837518798828125,0.8422735929489136,-9.187840461730957,4.831109046936035
1764544920091264000,18.854263916015626,0.7004988193511963,-9.385248184204102,4.988437175750732
1764544920108041700,18.871041748046874,0.4731806814670563,-9.630513191223145,5.050052165985107
1764544920124804000,18.88780419921875,0.44446679949760437,-9.683155059814453,5.069194793701172
1764544920141532000,18.904531982421876,0.6777670383453369,-9.600004196166992,4.748556613922119
1764544920158335000,18.9213349609375,0.8093722462654114,-9.396614074707031,4.390231132507324
1764544920175087600,18.938087646484377,0.8201399445533752,-9.122037887573242,4.047459602355957
1764544920191820300,18.9548203125,0.7507480978965759,-8.957531929016113,3.704089403152466
1764544920208610000,18.971610107421874,0.5419743061065674,-8.689535140991211,3.6197423934936523
1764544920225372200,18.9883720703125,0.25423741340637207,-8.154739379882812,3.7286159992218018
1764544920242097700,19.00509765625,0.2350948303937912,-8.088338851928711,3.8626139163970947
1764544920258894800,19.021894775390624,0.44386860728263855,-8.412566184997559,3.765106439590454
1764544920275655200,19.0386552734375,0.5623133182525635,-8.278568267822266,3.793820381164551
1764544920292408600,19.05540869140625,0.6795616149902344,-8.498109817504883,3.7639100551605225
1764544920309178000,19.07217822265625,0.7328019142150879,-8.51306438446045,3.8494534492492676
1764544920325914000,19.0889140625,0.6897311210632324,-8.47597599029541,4.088735580444336
1764544920342656500,19.105656494140625,0.5676971673965454,-8.673981666564941,4.403990268707275
1764544920359456300,19.122456298828126,0.6137589812278748,-8.37428092956543,4.730610370635986
1764544920376229400,19.1392294921875,0.6783652305603027,-8.551948547363281,4.954339504241943
1764544920392983000,19.155983154296877,1.0289137363433838,-8.61894702911377,5.091328144073486
1764544920409747200,19.172747314453126,1.210768222808838,-8.593822479248047,4.976472854614258
1764544920426514200,19.18951416015625,1.3351950645446777,-8.635697364807129,4.808377265930176
1764544920443266600,19.2062666015625,1.4267204999923706,-8.796614646911621,4.439284324645996
1764544920460030500,19.223030517578124,1.41834557056427,-8.986844062805176,4.213162422180176
1764544920476788200,19.239788330078124,1.6169499158859253,-9.277571678161621,4.019941806793213
1764544920493525200,19.256525146484375,1.7222341299057007,-9.70349407196045,4.0558342933654785
1764544920510314000,19.27331396484375,1.5337992906570435,-10.110872268676758,3.968496322631836
1764544920527075300,19.290075439453126,1.2532408237457275,-10.363913536071777,3.724428415298462
1764544920543804700,19.3068046875,1.0941181182861328,-10.382457733154297,3.4378879070281982
1764544920560596700,19.3235966796875,1.1300104856491089,-10.170692443847656,3.2859437465667725
1764544920577341000,19.3403408203125,1.2131611108779907,-9.815957069396973,3.253640651702881
1764544920594102300,19.357102294921877,1.2711870670318604,-9.34277629852295,3.4085757732391357
1764544920610882000,19.373882080078126,1.2664014101028442,-8.773882865905762,3.617349624633789
1764544920627643100,19.39064306640625,1.074975609779358,-8.300103187561035,3.6053855419158936
1764544920644363800,19.40736376953125,0.8213363885879517,-7.897511005401611,3.3930225372314453
1764544920661172700,19.4241728515625,0.7902296781539917,-7.724031448364258,3.1549365520477295
1764544920677926700,19.4409267578125,1.0402796268463135,-7.813762187957764,2.9718856811523438
1764544920694653700,19.45765380859375,1.363310694694519,-8.070392608642578,2.840280532836914
1764544920711449900,19.474449951171874,1.5194423198699951,-8.442476272583008,2.62313175201416
1764544920728211200,19.491211181640626,1.4739787578582764,-8.790034294128418,2.162513494491577
1764544920744940000,19.50793994140625,1.3764712810516357,-9.272188186645508,1.730010747909546
1764544920761709000,19.524708984375,1.409970760345459,-9.807581901550293,1.6223337650299072
1764544920778469400,19.541469482421874,1.41834557056427,-10.114460945129395,1.6737794876098633
1764544920795228200,19.558228271484374,1.3286148309707642,-10.747363090515137,1.7904295921325684
1764544920812006400,19.57500634765625,1.2867404222488403,-10.86281681060791,1.8185452222824097
1764544920828740600,19.59174072265625,1.2269197702407837,-10.623534202575684,1.8490537405014038
1764544920845529000,19.608529052734376,1.0031908750534058,-10.2418794631958,2.090130567550659
1764544920862277000,19.625277099609374,0.8045865893363953,-9.871589660644531,2.5423741340637207
1764544920879023000,19.642023193359375,0.9080761671066284,-9.528818130493164,3.098107099533081
1764544920895802400,19.65880224609375,1.1940184831619263,-9.238688468933105,3.662813186645508
1764544920912574700,19.67557470703125,1.4530415534973145,-9.177671432495117,4.006781578063965
1764544920929335300,19.692335205078123,1.5804593563079834,-9.445667266845703,4.067200183868408
1764544920946082800,19.709082763671876,1.6157535314559937,-9.735796928405762,3.697509288787842
1764544920962870500,19.72587060546875,1.3698909282684326,-9.719645500183105,3.1339993476867676
1764544920979631600,19.742631591796876,1.0013962984085083,-9.43489933013916,2.4813570976257324
1764544920996384500,19.759384521484375,0.5611169338226318,-9.145966529846191,1.9627127647399902
1764544921013147400,19.7761474609375,0.19381862878799438,-8.891130447387695,1.5589239597320557
1764544921029916200,19.792916259765626,-0.06699903309345245,-8.724231719970703,1.4745769500732422
1764544921055062800,19.818062744140626,-0.2476571500301361,-8.749954223632812,1.795215129852295
1764544921071810000,19.83481005859375,-0.1178465187549591,-8.770293235778809,2.0865414142608643
1764544921088580000,19.851580078125,0.0891326442360878,-8.757132530212402,2.410768747329712
1764544921105341700,19.868341796875,0.2967100143432617,-8.791828155517578,2.7834508419036865
1764544921122106600,19.885106689453124,0.4468596279621124,-8.850452423095703,3.184248685836792
1764544921138864000,19.901864013671876,0.4977070987224579,-9.120243072509766,3.493520975112915
1764544921155625700,19.918625732421877,0.5940182209014893,-9.09691333770752,3.728017568588257
1764544921172384000,19.935384033203125,0.5784648656845093,-8.982057571411133,3.7567315101623535
1764544921189120000,19.9521201171875,0.32303106784820557,-8.867202758789062,3.6197423934936523
1764544921205916000,19.968916015625,-0.06340979784727097,-8.560921669006348,3.3690943717956543
1764544921222634000,19.985634033203127,-0.2799602448940277,-8.531609535217285,3.1543383598327637
1764544921239432700,20.0024326171875,-0.39601215720176697,-8.483752250671387,3.073580741882324
1764544921256193000,20.019193115234376,-0.43908295035362244,-8.48853874206543,3.059821844100952
1764544921272929300,20.03592919921875,-0.4624129831790924,-8.551349639892578,3.1070802211761475
1764544921289710000,20.0527099609375,-0.6041877269744873,-8.672187805175781,3.2315070629119873
1764544921306484200,20.069484130859376,-0.5545366406440735,-8.816354751586914,3.3786656856536865
1764544921323204000,20.0862041015625,-0.33738797903060913,-8.964710235595703,3.463610887527466
1764544921340000300,20.103000244140624,-0.06759724020957947,-9.102895736694336,3.5192439556121826
1764544921356761900,20.119761962890625,0.19262222945690155,-9.250652313232422,3.565903902053833
1764544921373498000,20.136498046875,0.18843477964401245,-9.332008361816406,3.5748770236968994
1764544921390284300,20.1532841796875,-0.1950150430202484,-9.328418731689453,3.5234313011169434
1764544921407046000,20.1700458984375,-0.631106972694397,-9.367302894592285,3.4002010822296143
1764544921423780600,20.186780517578125,-1.031306505203247,-9.659825325012207,3.2279176712036133
1764544921440543200,20.203543212890626,-1.0372886657714844,-9.985847473144531,3.3750762939453125
1764544921457329700,20.22032958984375,-0.7489534616470337,-10.099506378173828,3.339782238006592
1764544921474065000,20.23706494140625,-0.5916253924369812,-9.998409271240234,3.2584261894226074
1764544921490852400,20.253852294921874,-0.5168496966362,-9.873384475708008,3.1489546298980713
1764544921507613700,20.27061376953125,-0.38644084334373474,-9.958928108215332,3.067000389099121
1764544921524348400,20.287348388671877,-0.17347964644432068,-10.216754913330078,3.0795626640319824
1764544921541127200,20.304127197265625,0.18424734473228455,-10.460822105407715,3.1968109607696533
1764544921557907000,20.320906982421874,0.4618147611618042,-10.430912017822266,3.16749906539917
1764544921574636300,20.33763623046875,0.5539384484291077,-10.094720840454102,2.9868409633636475
1764544921591420000,20.354419921875,0.4731806814670563,-9.744172096252441,2.7637102603912354
1764544921608181800,20.371181640625,0.24167509377002716,-9.596415519714355,2.736790895462036
1764544921624917000,20.3879169921875,0.05802594870328903,-9.434301376342773,2.785843849182129
1764544921641704700,20.40470458984375,-0.048454657196998596,-9.276973724365234,2.868396043777466
1764544921658465500,20.421465576171876,-0.010767702013254166,-9.19980525970459,2.8827531337738037
1764544921675201000,20.438200927734375,0.23688943684101105,-9.046066284179688,2.830111026763916
1764544921691988200,20.45498828125,0.5132604837417603,-8.906085968017578,2.7966115474700928
1764544921708750000,20.47175,0.7178468108177185,-8.756534576416016,2.7008986473083496
1764544921725490700,20.48849072265625,0.9098708033561707,-8.803792953491211,2.637488842010498
1764544921742272500,20.5052724609375,1.088136076927185,-8.95095157623291,2.521436929702759
1764544921759034000,20.5220341796875,1.200000524520874,-9.156135559082031,2.362314224243164
1764544921775770600,20.5387705078125,1.4871392250061035,-9.178269386291504,2.203789710998535
1764544921792552400,20.555552490234376,1.6319050788879395,-9.29731273651123,2.097309112548828
1764544921809322000,20.572322021484375,1.7282161712646484,-9.31585693359375,2.1260228157043457
1764544921826053000,20.58905322265625,1.8179470300674438,-9.253045082092285,2.0063817501068115
1764544921842840600,20.605840576171875,1.9076778888702393,-9.128020286560059,1.9776679277420044
1764544921859601400,20.622601318359376,2.0787646770477295,-8.927620887756348,2.160120725631714
1764544921876337000,20.6393369140625,2.304288148880005,-8.837292671203613,2.465803623199463
1764544921893124900,20.656124755859373,2.4197418689727783,-8.805587768554688,2.8863422870635986
1764544921909880000,20.672880126953125,2.344966173171997,-8.94556713104248,3.139383316040039
1764544921926627000,20.689626953125,2.242074728012085,-9.110074043273926,3.411566972732544
1764544921943383000,20.706383056640625,2.2295124530792236,-9.273982048034668,3.5545380115509033
1764544921960169700,20.723169677734376,2.197209358215332,-9.422337532043457,3.606581926345825
1764544921976929000,20.739928955078124,2.0446670055389404,-9.513862609863281,3.5300116539001465
1764544921993692400,20.7566923828125,1.6462619304656982,-9.471389770507812,3.497708559036255
1764544922010421000,20.7734208984375,1.280758261680603,-9.285347938537598,3.476173162460327
1764544922027208700,20.790208740234377,1.1431710720062256,-8.96949577331543,3.3966116905212402
1764544922043972600,20.80697265625,1.1581261157989502,-8.571688652038574,3.331407308578491
1764544922060742400,20.823742431640625,1.2610175609588623,-8.317451477050781,3.2991042137145996
1764544922077485300,20.8404853515625,1.451246976852417,-8.12542724609375,3.3708889484405518
1764544922094261000,20.857260986328125,1.618146300315857,-8.02492904663086,3.4713873863220215
1764544922111022600,20.874022705078126,1.6444673538208008,-8.231907844543457,3.6568312644958496
1764544922127761700,20.89076171875,1.545763373374939,-8.333602905273438,3.84765887260437
1764544922144534800,20.90753466796875,1.3609179258346558,-8.521439552307129,3.9912281036376953
1764544922161315800,20.92431591796875,1.1617153882980347,-8.695517539978027,4.1389851570129395
1764544922178041300,20.941041259765626,0.9762716293334961,-8.82114028930664,4.263411521911621
1764544922194803200,20.95780322265625,0.9002995491027832,-8.883952140808105,4.416552543640137
1764544922211590100,20.974590087890626,0.9002995491027832,-8.903095245361328,4.392624378204346
1764544922228317000,20.99131689453125,0.9433703422546387,-8.902496337890625,4.2825541496276855
1764544922245112800,21.00811279296875,0.914058268070221,-8.892327308654785,4.1006999015808105
1764544922261848300,21.024848388671874,0.7890332937240601,-8.844470977783203,4.048655986785889
1764544922278609400,21.041609375,0.6634100675582886,-8.753543853759766,3.9972102642059326
1764544922295396900,21.05839697265625,0.6047859191894531,-8.648259162902832,3.9260237216949463
1764544922312158500,21.075158447265625,0.5712863802909851,-8.681160926818848,3.892524242401123
1764544922328893200,21.09189306640625,0.6209374666213989,-8.882157325744629,3.8434712886810303
1764544922345681200,21.10868115234375,0.672383189201355,-8.714659690856934,3.9158542156219482
1764544922362442500,21.1254423828125,0.5467599630355835,-8.61475944519043,3.954737663269043
1764544922379187000,21.14218701171875,0.4175475537776947,-8.558527946472168,4.1036906242370605
1764544922395965200,21.158965087890625,0.3595215976238251,-8.46341323852539,4.214358806610107
1764544922412726500,21.1757265625,0.4833501875400543,-8.387441635131836,4.377070903778076
1764544922429450000,21.192449951171874,0.6711867451667786,-8.36411190032959,4.668396949768066
1764544922446249200,21.209249267578127,0.8267202377319336,-8.551349639892578,4.929812908172607
1764544922463010300,21.22601025390625,0.9768698215484619,-8.672187805175781,5.143970489501953
1764544922479772400,21.2427724609375,1.2562319040298462,-8.838488578796387,5.065605640411377
1764544922496533200,21.259533203125,1.3812568187713623,-8.918647766113281,4.959722995758057
1764544922513291800,21.276291748046877,1.3441680669784546,-9.061619758605957,4.749154567718506
1764544922530030000,21.293030029296876,1.3812568187713623,-8.984451293945312,4.624728202819824
1764544922546817300,21.3098173828125,1.3459627628326416,-8.882756233215332,4.314857482910156
1764544922563572200,21.326572265625,1.40279221534729,-8.885149002075195,3.9463627338409424
1764544922580320300,21.3433203125,1.571486234664917,-9.098708152770996,3.6335012912750244
1764544922597107700,21.360107666015626,1.7521443367004395,-9.494720458984375,3.4307093620300293
1764544922613830000,21.376829833984374,1.908874273300171,-9.938589096069336,3.1746773719787598
1764544922630600400,21.393600341796876,2.160120725631714,-10.167701721191406,3.139383316040039
1764544922647385600,21.410385498046875,2.304288148880005,-10.229316711425781,3.0855448246002197
1764544922664146200,21.427146240234375,2.179861545562744,-10.234102249145508,3.067000389099121
1764544922680888300,21.443888427734375,1.8634105920791626,-10.253843307495117,3.0346972942352295
1764544922697669600,21.460669677734376,1.6606189012527466,-10.12881851196289,2.820539712905884
1764544922714405400,21.4774052734375,1.5948163270950317,-9.845269203186035,2.520838737487793
1764544922731183400,21.494183349609376,1.5726827383041382,-9.556933403015137,2.3497519493103027
1764544922747953700,21.51095361328125,1.5601203441619873,-9.236295700073242,2.318047046661377
1764544922764698600,21.52769873046875,1.6342978477478027,-8.977272033691406,2.3048863410949707
1764544922781451500,21.544451416015626,1.8376877307891846,-8.760722160339355,2.2187447547912598
1764544922798237400,21.561237548828124,1.9908283948898315,-8.69791030883789,2.1756739616394043
1764544922814998800,21.577998779296873,1.947757601737976,-8.7505521774292,2.142174482345581
1764544922831731200,21.594731201171875,1.8592232465744019,-9.061619758605957,2.011765718460083
1764544922848528000,21.61152783203125,1.6426727771759033,-8.965906143188477,1.8550357818603516
1764544922865282300,21.6282822265625,1.389631748199463,-9.047860145568848,1.9130617380142212
1764544922882042400,21.64504248046875,1.0863415002822876,-9.384650230407715,2.0368902683258057
1764544922898805800,21.6618056640625,0.7854440212249756,-9.941579818725586,2.1882362365722656
1764544922915541200,21.678541259765623,0.5700899958610535,-10.502696990966797,2.2773690223693848
1764544922932319500,21.695319580078124,0.4049852192401886,-10.757532119750977,2.3431715965270996
1764544922949089500,21.712089599609374,0.6059823632240295,-10.691131591796875,2.558525562286377
