time,seconds_elapsed,z,y,x
1764544901359807000,0.122806884765625,8.85609245300293,4.213465690612793,-0.22898662090301514
1764544901376931800,0.139931884765625,8.861148834228516,4.202617645263672,-0.23269039392471313
1764544901402611000,0.16561083984375,8.868025779724121,4.187183856964111,-0.24844908714294434
1764544901419702500,0.18270263671875,8.881149291992188,4.157500267028809,-0.27657315135002136
1764544901436788500,0.19978857421875,8.886396408081055,4.144471168518066,-0.3023706376552582
1764544901453879800,0.2168798828125,8.874390602111816,4.167726516723633,-0.3337036669254303
1764544901470975700,0.233975830078125,8.844411849975586,4.226736068725586,-0.3836386203765869
1764544901488093000,0.251093017578125,8.805990219116211,4.295608997344971,-0.48824837803840637
1764544901505197300,0.268197265625,8.776829719543457,4.340475559234619,-0.6030261516571045
1764544901522301400,0.285301513671875,8.768176078796387,4.343531608581543,-0.6992368102073669
1764544901539388700,0.302388671875,8.781122207641602,4.308063983917236,-0.7540455460548401
1764544901556494800,0.319494873046875,8.806891441345215,4.250297546386719,-0.7808634042739868
1764544901573579500,0.33657958984375,8.837807655334473,4.183960914611816,-0.7897746562957764
1764544901590688000,0.35368798828125,8.86371898651123,4.117478370666504,-0.8467369675636292
1764544901607783200,0.370783203125,8.872066497802734,4.090068817138672,-0.8910101652145386
1764544901624880000,0.387880126953125,8.870283126831055,4.094561576843262,-0.8881226778030396
1764544901641970700,0.404970703125,8.862274169921875,4.119439601898193,-0.852301299571991
1764544901659054800,0.422054931640625,8.851181030273438,4.151581764221191,-0.8106005787849426
1764544901676169500,0.43916943359375,8.843818664550781,4.183456897735596,-0.7222679853439331
1764544901693258500,0.456258544921875,8.833070755004883,4.224931716918945,-0.602422297000885
1764544901710361000,0.473361083984375,8.817327499389648,4.28427267074585,-0.3685862720012665
1764544901727447000,0.490447021484375,8.799882888793945,4.335663318634033,0.01405129861086607
1764544901744553700,0.5075537109375,8.7620849609375,4.39167594909668,0.4185292422771454
1764544901761653200,0.5246533203125,8.718400955200195,4.428929805755615,0.7811295986175537
1764544901778721800,0.5417216796875,8.689143180847168,4.441018581390381,1.0061029195785522
1764544901795839700,0.55883984375,8.68370246887207,4.438297748565674,1.0634527206420898
1764544901812934000,0.575933837890625,8.689451217651367,4.412312984466553,1.1229596138000488
1764544901830024200,0.593024169921875,8.691781997680664,4.380943298339844,1.2232643365859985
1764544901847127600,0.61012744140625,8.677979469299316,4.392271041870117,1.2793524265289307
1764544901864229600,0.627229736328125,8.71213436126709,4.281651973724365,1.4150220155715942
1764544901881316400,0.64431640625,8.777587890625,4.0980224609375,1.547989010810852
1764544901898422300,0.66142236328125,8.85116958618164,3.878929376602173,1.6872546672821045
1764544901915510800,0.6785107421875,8.909876823425293,3.6745152473449707,1.829793930053711
1764544901932596200,0.69559619140625,8.951152801513672,3.528271198272705,1.9142283201217651
1764544901949712000,0.7127119140625,8.99207592010498,3.4310340881347656,1.8991292715072632
1764544901966801200,0.72980126953125,9.02706241607666,3.3468663692474365,1.8832751512527466
1764544901983897900,0.74689794921875,9.049110412597656,3.281391143798828,1.8926637172698975
1764544902001000000,0.764,9.063035011291504,3.245069980621338,1.8886574506759644
1764544902018092000,0.781092041015625,9.06334400177002,3.2552995681762695,1.8694719076156616
1764544902035180500,0.7981806640625,9.064414024353027,3.292882204055786,1.7970633506774902
1764544902052289800,0.815289794921875,9.08938217163086,3.1820192337036133,1.8692257404327393
1764544902069380000,0.832380126953125,9.087556838989258,3.2255027294158936,1.8023749589920044
1764544902086475800,0.849475830078125,9.09558391571045,3.258068084716797,1.7004314661026
1764544902103574800,0.86657470703125,9.126818656921387,3.2414681911468506,1.5588998794555664
1764544902120666000,0.883666015625,9.17872428894043,3.174027919769287,1.3829952478408813
1764544902137763000,0.90076318359375,9.235085487365723,3.085914373397827,1.1943354606628418
1764544902154856000,0.91785595703125,9.267268180847168,3.032475471496582,1.0760756731033325
1764544902171964200,0.934964111328125,9.28022289276123,3.000887632369995,1.0527325868606567
1764544902189060600,0.952060546875,9.279465675354004,2.989834785461426,1.090192437171936
1764544902206160100,0.96916015625,9.287741661071777,2.9481422901153564,1.1324390172958374
1764544902223271000,0.98627099609375,9.321144104003906,2.8473849296569824,1.1156941652297974
1764544902240381000,1.003380859375,9.36607551574707,2.725599765777588,1.0410826206207275
1764544902257346600,1.0203466796875,9.4039306640625,2.621422290802002,0.9645445942878723
1764544902274126800,1.037126953125,9.415472984313965,2.5741288661956787,0.9792011380195618
1764544902290870000,1.0538701171875,9.395275115966797,2.6029436588287354,1.09068763256073
1764544902307650600,1.070650634765625,9.351151466369629,2.694401264190674,1.2378500699996948
1764544902324417500,1.08741748046875,9.283854484558105,2.8305580615997314,1.4262174367904663
1764544902341148000,1.10414794921875,9.214911460876465,2.9533913135528564,1.6121392250061035
1764544902357916000,1.120916015625,9.164380073547363,3.062511444091797,1.6944806575775146
1764544902374699800,1.13769970703125,9.127321243286133,3.006316900253296,1.9723540544509888
1764544902391432200,1.15443212890625,9.094167709350586,3.051516056060791,2.054380178451538
1764544902408191700,1.171191650390625,9.060698509216309,3.0885307788848877,2.1449553966522217
1764544902424981000,1.18798095703125,9.014622688293457,3.164232015609741,2.2271759510040283
1764544902441717200,1.20471728515625,8.937004089355469,3.3611886501312256,2.251328945159912
1764544902458478300,1.221478271484375,8.883882522583008,3.5399248600006104,2.1867048740386963
1764544902475239000,1.238239013671875,8.851510047912598,3.6394553184509277,2.15435528755188
1764544902492003800,1.25500390625,8.826064109802246,3.7155826091766357,2.1286492347717285
1764544902508790800,1.271790771484375,8.789749145507812,3.8044583797454834,2.1219143867492676
1764544902525544700,1.288544677734375,8.728087425231934,3.916513681411743,2.1719865798950195
1764544902542298000,1.305298095703125,8.61510181427002,4.115917682647705,2.2528562545776367
1764544902559073000,1.322072998046875,8.535029411315918,4.226837635040283,2.3501572608947754
1764544902575828500,1.338828369140625,8.493539810180664,4.269632816314697,2.4220099449157715
1764544902592596200,1.35559619140625,8.46944522857666,4.309268474578857,2.4361484050750732
1764544902609328000,1.372328125,8.439902305603027,4.367337226867676,2.4352681636810303
1764544902626115600,1.389115478515625,8.406758308410645,4.450056552886963,2.3999009132385254
1764544902642873300,1.405873291015625,8.40174388885498,4.483734607696533,2.354344129562378
1764544902659640300,1.422640380859375,8.407316207885742,4.485567569732666,2.3308427333831787
1764544902676373200,1.439373291015625,8.406281471252441,4.472833156585693,2.3588755130767822
1764544902693134600,1.456134521484375,8.402286529541016,4.454518795013428,2.40726900100708
1764544902709921500,1.472921630859375,8.415586471557617,4.39939022064209,2.461578130722046
1764544902726654000,1.489654052734375,8.441383361816406,4.308488845825195,2.5329976081848145
1764544902743418000,1.506418212890625,8.452839851379395,4.2177815437316895,2.6449830532073975
1764544902760207600,1.52320751953125,8.412595748901367,4.167771339416504,2.844999074935913
1764544902776963000,1.539963134765625,8.328843116760254,4.13145637512207,3.1301016807556152
1764544902793708300,1.556708251953125,8.229972839355469,4.095711708068848,3.424733877182007
1764544902810462500,1.57346240234375,8.146200180053711,4.025765419006348,3.6971256732940674
1764544902827249400,1.59024951171875,8.148648262023926,3.865190029144287,3.8595268726348877
1764544902843979500,1.6069794921875,8.093289375305176,3.739799976348877,4.092514514923096
1764544902860776200,1.623776123046875,7.957244396209717,3.6801955699920654,4.401651382446289
1764544902877491200,1.6404912109375,7.720563888549805,3.739992141723633,4.758304595947266
1764544902894274300,1.6572744140625,7.405571460723877,3.899381160736084,5.117464542388916
1764544902911052800,1.674052734375,7.016442775726318,4.101944446563721,5.493603706359863
1764544902927815200,1.690815185546875,6.582352638244629,4.261908531188965,5.894479751586914
1764544902944555000,1.707554931640625,6.157492160797119,4.349888801574707,6.276931285858154
1764544902961315600,1.724315673828125,5.834436416625977,4.288027286529541,6.618783473968506
1764544902978101000,1.74110107421875,5.64778470993042,4.127763748168945,6.877513885498047
1764544902994832100,1.75783203125,5.614573955535889,3.902179479598999,7.034605503082275
1764544903011609300,1.774609375,5.637570858001709,3.6120193004608154,7.1698832511901855
1764544903028348200,1.79134814453125,5.636109828948975,3.279385805130005,7.32912015914917
1764544903045121500,1.80812158203125,5.575582504272461,2.9226818084716797,7.5237579345703125
1764544903061905400,1.824905517578125,5.492533206939697,2.5438125133514404,7.71992301940918
1764544903078666500,1.84166650390625,5.491618633270264,2.1455905437469482,7.840578079223633
1764544903095403300,1.8584033203125,5.475512981414795,1.7332557439804077,7.953030109405518
1764544903112178400,1.875178466796875,5.453328609466553,1.3086118698120117,8.048903465270996
1764544903128956000,1.891955810546875,5.468950271606445,0.8779170513153076,8.096663475036621
1764544903145680000,1.908679931640625,5.293606281280518,0.7748671770095825,8.222737312316895
1764544903162475300,1.925475341796875,5.315542697906494,0.3943379819393158,8.235630989074707
1764544903179233800,1.94223388671875,5.339480876922607,0.01287381537258625,8.229574203491211
1764544903195972600,1.95897265625,5.34967565536499,-0.30778196454048157,8.217199325561523
1764544903212729900,1.975729736328125,5.382943630218506,-0.5164559483528137,8.184944152832031
1764544903229520600,1.992520751953125,5.468813419342041,-0.6073158383369446,8.121536254882812
1764544903246259000,2.009259033203125,5.606639862060547,-0.5966259241104126,8.027810096740723
1764544903263039500,2.02603955078125,5.767723083496094,-0.5003325343132019,7.919541835784912
1764544903279800300,2.04280029296875,5.954038143157959,-0.32707923650741577,7.789644718170166
1764544903296533000,2.059532958984375,6.1653056144714355,-0.08016503602266312,7.630117416381836
1764544903313320700,2.07632080078125,6.424193382263184,0.23796501755714417,7.410075664520264
1764544903330086000,2.0930859375,6.723449230194092,0.5926758646965027,7.11899471282959
1764544903346817000,2.109817138671875,7.058563709259033,0.9365512132644653,6.748011112213135
1764544903363608000,2.126608154296875,7.314483165740967,1.2644232511520386,6.413710594177246
1764544903380363000,2.143363037109375,7.635026931762695,1.5778614282608032,5.954227924346924
1764544903397102800,2.160102783203125,7.921170711517334,1.9041038751602173,5.464938163757324
1764544903413887000,2.176886962890625,8.21960735321045,2.0926220417022705,4.929005146026611
1764544903430654500,2.193654541015625,8.506296157836914,2.2663285732269287,4.329294204711914
1764544903447386000,2.21038623046875,8.688735008239746,2.521597146987915,3.7925620079040527
1764544903464167000,2.2271669921875,8.714686393737793,2.847364664077759,3.490396022796631
1764544903480905700,2.24390576171875,8.718443870544434,3.0463013648986816,3.3083062171936035
1764544903497668900,2.2606689453125,8.737748146057129,3.1782329082489014,3.1283700466156006
1764544903514456000,2.2774560546875,8.757917404174805,3.285050868988037,2.9569292068481445
1764544903531191000,2.29419091796875,8.783429145812988,3.366920232772827,2.7841227054595947
1764544903547953400,2.310953369140625,8.838089942932129,3.381671905517578,2.5862278938293457
1764544903564739800,2.32773974609375,8.84257698059082,3.4748218059539795,2.4434711933135986
1764544903581493200,2.3444931640625,8.7953462600708,3.6365537643432617,2.377704381942749
1764544903598237000,2.36123681640625,8.71894359588623,3.8158364295959473,2.3781330585479736
1764544903615018200,2.378018310546875,8.628501892089844,3.993748188018799,2.415584087371826
1764544903631763200,2.39476318359375,8.547269821166992,4.137844562530518,2.4614081382751465
1764544903648533500,2.411533447265625,8.466399192810059,4.258627414703369,2.5338263511657715
1764544903665306600,2.428306640625,8.385685920715332,4.355069637298584,2.636237144470215
1764544903682029800,2.44502978515625,8.322837829589844,4.4054718017578125,2.7492332458496094
1764544903698803700,2.4618037109375,8.327122688293457,4.371716499328613,2.789844512939453
1764544903715590100,2.478590087890625,8.417220115661621,4.265231609344482,2.6822211742401123
1764544903732350200,2.49535009765625,8.644990921020508,3.9590225219726562,2.413790702819824
1764544903749088500,2.512088623046875,8.782848358154297,3.791062831878662,2.1738269329071045
1764544903765870000,2.5288701171875,8.827139854431152,3.71168851852417,2.130979537963867
1764544903782637000,2.545636962890625,8.830055236816406,3.661736249923706,2.2040679454803467
1764544903799371300,2.562371337890625,8.816445350646973,3.631603479385376,2.3060498237609863
1764544903816128500,2.57912841796875,8.799891471862793,3.5984249114990234,2.4185445308685303
1764544903832921600,2.595921630859375,8.782135009765625,3.541018486022949,2.563474416732788
1764544903849654300,2.612654296875,8.748204231262207,3.456779956817627,2.7849032878875732
1764544903866440200,2.629440185546875,8.684124946594238,3.348642587661743,3.0997872352600098
1764544903883200800,2.64620068359375,8.580646514892578,3.236497640609741,3.4833436012268066
1764544903899935200,2.662935302734375,8.44270133972168,3.105733871459961,3.912968635559082
1764544903916701400,2.679701416015625,8.250304222106934,2.9769339561462402,4.393908977508545
1764544903933484800,2.69648486328125,7.9677414894104,2.8537068367004395,4.960600852966309
1764544903950219500,2.713219482421875,7.596130847930908,2.7135369777679443,5.583155155181885
1764544903967005400,2.73000537109375,7.153310775756836,2.536835193634033,6.215362071990967
1764544903983771600,2.746771728515625,6.666103839874268,2.2779903411865234,6.827147483825684
1764544904000503600,2.763503662109375,6.176065444946289,1.8903534412384033,7.383690357208252
1764544904017291000,2.780291015625,5.726726055145264,1.3680821657180786,7.846595287322998
1764544904034047500,2.797047607421875,5.350642681121826,0.7450563311576843,8.188505172729492
1764544904050790400,2.813790283203125,5.011966228485107,0.06155305728316307,8.432823181152344
1764544904067571000,2.830571044921875,4.226476669311523,-0.7267712354660034,8.82297134399414
1764544904084312800,2.847312744140625,3.8053698539733887,-1.4346009492874146,8.927329063415527
1764544904101070600,2.864070556640625,3.3661258220672607,-2.1013572216033936,8.971600532531738
1764544904117854700,2.880854736328125,2.924694538116455,-2.7320761680603027,8.956452369689941
1764544904134586600,2.897586669921875,2.5242068767547607,-3.3381900787353516,8.872485160827637
1764544904151354400,2.914354248046875,2.2676737308502197,-3.9004366397857666,8.71093463897705
1764544904168141300,2.931141357421875,2.1326513290405273,-4.41263484954834,8.498032569885254
1764544904184899000,2.947899169921875,2.044545888900757,-4.877669334411621,8.26222038269043
1764544904201641000,2.964640869140625,2.0073938369750977,-5.262632846832275,8.03188419342041
1764544904218424000,2.981424072265625,2.0296759605407715,-5.517691135406494,7.853127956390381
1764544904235185000,2.998184814453125,1.9225622415542603,-5.620394229888916,7.807114601135254
1764544904251920000,3.014919921875,1.7092894315719604,-5.637451648712158,7.844334125518799
1764544904268707800,3.031707763671875,1.6219396591186523,-5.632454872131348,7.866440296173096
1764544904285433900,3.048433837890625,1.7108062505722046,-5.559937477111816,7.899136066436768
1764544904302208800,3.065208740234375,1.9389593601226807,-5.413362979888916,7.948084831237793
1764544904318963200,3.081963134765625,2.299448251724243,-5.210301399230957,7.987578868865967
1764544904335722200,3.09872216796875,2.846501350402832,-4.961604595184326,7.969693183898926
1764544904352490800,3.11549072265625,3.561579465866089,-4.679895877838135,7.851741313934326
1764544904369275400,3.132275390625,4.201257705688477,-4.415642738342285,7.686849594116211
1764544904386036000,3.149035888671875,4.752415657043457,-4.209346294403076,7.478774547576904
1764544904402773800,3.165773681640625,5.018957614898682,-4.1898674964904785,7.313767433166504
1764544904419558400,3.182558349609375,5.092559814453125,-4.256392478942871,7.223923206329346
1764544904436290300,3.199290283203125,5.009391784667969,-4.4142560958862305,7.1872429847717285
1764544904469816000,3.232816162109375,4.9425482749938965,-4.909827709197998,6.906585693359375
1764544904486578000,3.249577880859375,4.9854583740234375,-5.145811557769775,6.700891494750977
1764544904503347200,3.26634716796875,5.045620918273926,-5.345625400543213,6.49631404876709
1764544904520099600,3.283099609375,5.123856067657471,-5.3970627784729,6.391706466674805
1764544904553621000,3.31662109375,5.237209320068359,-5.498086929321289,6.211183071136475
1764544904570386000,3.333385986328125,5.324428081512451,-5.447044372558594,6.181933403015137
1764544904587131400,3.35013134765625,5.42887544631958,-5.304376125335693,6.215063571929932
1764544904603900200,3.366900146484375,5.587862014770508,-5.075953960418701,6.264710426330566
1764544904629048800,3.392048828125,5.76945686340332,-4.797702312469482,6.3191399574279785
1764544904654207500,3.41720751953125,5.825456619262695,-4.626385688781738,6.395054817199707
1764544904696088800,3.4590888671875,5.866523265838623,-4.65502405166626,6.336463451385498
1764544904712848000,3.475847900390625,5.9239277839660645,-4.6919989585876465,6.255263805389404
1764544904729602300,3.492602294921875,6.0251078605651855,-4.699036598205566,6.152498245239258
1764544904746386000,3.509385986328125,6.208827495574951,-4.627439975738525,6.022738933563232
1764544904763143000,3.526142822265625,6.462417125701904,-4.454407691955566,5.884854793548584
1764544904779924700,3.5429248046875,6.570559978485107,-4.182095527648926,5.964388847351074
1764544904796656000,3.55965625,6.749392986297607,-4.039987087249756,5.861767292022705
1764544904813436400,3.5764365234375,6.8944091796875,-3.9266750812530518,5.76926851272583
1764544904830195700,3.59319580078125,6.97508430480957,-3.9185807704925537,5.677062511444092
1764544904846971600,3.6099716796875,6.995002269744873,-4.041194438934326,5.565501689910889
1764544904863726300,3.626726318359375,6.95242166519165,-4.260768413543701,5.453970909118652
1764544904880488000,3.643488037109375,6.813032150268555,-4.557102203369141,5.389945983886719
1764544904897232400,3.660232421875,6.561981678009033,-4.950883388519287,5.353993892669678
1764544904913984000,3.67698388671875,6.179775238037109,-5.4485626220703125,5.325378894805908
1764544904930741200,3.6937412109375,5.653314113616943,-6.059963703155518,5.249093532562256
1764544904947536400,3.710536376953125,5.315164089202881,-6.680866718292236,4.832302570343018
1764544904964286700,3.72728662109375,4.865879535675049,-7.116382122039795,4.681499481201172
1764544904981060000,3.74406005859375,4.572946548461914,-7.4423699378967285,4.464909553527832
1764544904997815600,3.760815673828125,4.288696765899658,-7.704463481903076,4.299352169036865
1764544905014577200,3.7775771484375,3.939591646194458,-7.941740036010742,4.200535297393799
1764544905031337500,3.79433740234375,3.540905475616455,-8.160460472106934,4.1358160972595215
1764544905048098800,3.811098876953125,3.163874626159668,-8.362713813781738,4.036214828491211
1764544905064860200,3.827860107421875,2.8103318214416504,-8.538080215454102,3.9292922019958496
1764544905081621000,3.84462109375,2.275575876235962,-8.734245300292969,3.8432834148406982
1764544905098382000,3.861382080078125,1.9249393939971924,-8.88657283782959,3.682328701019287
1764544905115116500,3.878116455078125,1.739234209060669,-8.990553855895996,3.5186805725097656
1764544905131904000,3.894904052734375,1.6369317770004272,-9.06137752532959,3.3834893703460693
1764544905148627700,3.911627685546875,1.5641794204711914,-9.110891342163086,3.283456802368164
1764544905165426200,3.92842626953125,1.5176101922988892,-9.134798049926758,3.2385857105255127
1764544905182181000,3.94518115234375,1.5162286758422852,-9.132437705993652,3.245882511138916
1764544905198955300,3.961955322265625,1.5516151189804077,-9.122580528259277,3.2568612098693848
1764544905215715800,3.9787158203125,1.5143489837646484,-9.133585929870605,3.2435250282287598
1764544905232466000,3.9954658203125,1.5574249029159546,-9.121350288391113,3.2575294971466064
1764544905249232600,4.012232666015625,1.562617540359497,-9.097261428833008,3.3217713832855225
1764544905265985800,4.02898583984375,1.4503910541534424,-9.121380805969238,3.3064942359924316
1764544905282762500,4.045762451171875,1.2613986730575562,-9.19974136352539,3.163815498352051
1764544905299516000,4.062515869140625,1.2542691230773926,-9.269869804382324,2.955068826675415
1764544905316277000,4.079277099609375,1.3675652742385864,-9.304694175720215,2.790800094604492
1764544905333037800,4.096037841796875,1.4684468507766724,-9.318584442138672,2.6914281845092773
1764544905349793000,4.11279296875,1.5124547481536865,-9.32459545135498,2.6458523273468018
1764544905366558200,4.12955810546875,1.4796818494796753,-9.333226203918457,2.6339197158813477
1764544905383321000,4.146321044921875,1.363945722579956,-9.33848762512207,2.6773900985717773
1764544905400057000,4.16305712890625,1.1976546049118042,-9.33570671081543,2.765194892883301
1764544905416844500,4.179844482421875,1.0447286367416382,-9.328826904296875,2.849149703979492
1764544905433594000,4.196593994140625,0.9528360366821289,-9.321267127990723,2.905547618865967
1764544905450376700,4.213376708984375,0.9241848587989807,-9.31118392944336,2.9468371868133545
1764544905467134000,4.230134033203125,0.9424410462379456,-9.29515552520752,2.9913170337677
1764544905483882000,4.246882080078125,0.9879838228225708,-9.283117294311523,3.013923168182373
1764544905500649200,4.263649169921875,1.0487109422683716,-9.261774063110352,3.0587353706359863
1764544905517410800,4.280410888671875,1.1312249898910522,-9.233027458190918,3.1157076358795166
1764544905534199600,4.297199462890625,1.1919196844100952,-9.217842102050781,3.1379644870758057
1764544905550933800,4.313933837890625,1.2186765670776367,-9.223875045776367,3.109834671020508
1764544905567693800,4.33069384765625,1.2013684511184692,-9.246212005615234,3.049654006958008
1764544905584454700,4.34745458984375,1.1509112119674683,-9.2731351852417,2.9867215156555176
1764544905601216500,4.364216552734375,1.0851516723632812,-9.297118186950684,2.936354875564575
1764544905617940000,4.38093994140625,1.0193192958831787,-9.319225311279297,2.889491558074951
1764544905634738700,4.39773876953125,0.9664968848228455,-9.337974548339844,2.8467912673950195
1764544905651482000,4.414482177734375,0.932327389717102,-9.351117134094238,2.8148701190948486
1764544905668260600,4.431260498046875,0.9457750916481018,-9.359648704528809,2.781834602355957
1764544905685016300,4.448016357421875,0.9412919282913208,-9.351435661315918,2.8108267784118652
1764544905701787600,4.46478759765625,1.0111587047576904,-9.352425575256348,2.783128023147583
1764544905718522000,4.481522216796875,1.0331389904022217,-9.352153778076172,2.7759578227996826
1764544905735311000,4.49831103515625,1.0325562953948975,-9.351666450500488,2.7778210639953613
1764544905752066800,4.51506689453125,0.9827371835708618,-9.355353355407715,2.7834715843200684
1764544905768830500,4.53183056640625,0.6796644330024719,-9.379193305969238,2.7937254905700684
1764544905785588700,4.548588623046875,0.4030357301235199,-9.39352798461914,2.7991626262664795
1764544905802350300,4.565350341796875,0.2521446645259857,-9.39908218383789,2.798178195953369
1764544905819078100,4.582078125,0.23037812113761902,-9.400794982910156,2.794294834136963
1764544905835872300,4.598872314453125,0.28408756852149963,-9.394286155700684,2.811187982559204
1764544905852633900,4.6156337890625,0.3643776774406433,-9.392561912536621,2.8076913356781006
1764544905869367000,4.632366943359375,0.4069656431674957,-9.392108917236328,2.803352117538452
1764544905886155500,4.649155517578125,0.40295255184173584,-9.394535064697266,2.7957873344421387
1764544905902891000,4.66589111328125,0.36616989970207214,-9.398336410522461,2.7880659103393555
1764544905919666000,4.682666015625,0.33752915263175964,-9.404809951782227,2.7697901725769043
1764544905936444000,4.69944384765625,0.32827943563461304,-9.411197662353516,2.749133348464966
1764544905953200600,4.71620068359375,0.337472140789032,-9.41591739654541,2.731804132461548
1764544905969953800,4.732953857421875,0.3629748523235321,-9.421235084533691,2.710113286972046
1764544905986727000,4.749726806640625,0.4014904499053955,-9.42976188659668,2.6747939586639404
1764544906003484200,4.766484130859375,0.441192090511322,-9.439935684204102,2.6323113441467285
1764544906020242000,4.783241943359375,0.48317956924438477,-9.448288917541504,2.594703197479248
1764544906037011500,4.800011474609375,0.5225765109062195,-9.451728820800781,2.5744590759277344
1764544906053772800,4.816772705078125,0.5456745624542236,-9.449085235595703,2.5793709754943848
1764544906070528300,4.8335283203125,0.5463024377822876,-9.440372467041016,2.610949993133545
1764544906087289300,4.850289306640625,0.5274931192398071,-9.425399780273438,2.668278217315674
1764544906104050400,4.867050537109375,0.5051441788673401,-9.405879020690918,2.740511655807495
1764544906120811500,4.8838115234375,0.49566835165023804,-9.384946823120117,2.8130409717559814
1764544906137572900,4.90057275390625,0.503919780254364,-9.364953994750977,2.877467393875122
1764544906154301000,4.917301025390625,0.5277143120765686,-9.346819877624512,2.9316537380218506
1764544906171095000,4.934094970703125,0.5616201162338257,-9.331515312194824,2.9738070964813232
1764544906187850000,4.95085009765625,0.5983467698097229,-9.3185453414917,3.007129669189453
1764544906204622800,4.967622802734375,0.6760847568511963,-9.29983139038086,3.0483033657073975
1764544906221379800,4.9843798828125,0.7093836665153503,-9.289384841918945,3.0724937915802
1764544906238137900,5.001137939453125,0.7188310027122498,-9.283651351928711,3.0875914096832275
1764544906254901200,5.0179013671875,0.7376787662506104,-9.2785005569458,3.0986123085021973
1764544906271623700,5.034623779296875,0.7759432196617126,-9.27278995513916,3.1063504219055176
1764544906288427800,5.051427734375,0.8371780514717102,-9.265286445617676,3.1128287315368652
1764544906305184300,5.068184326171875,0.9170668125152588,-9.251535415649414,3.1311635971069336
1764544906321953300,5.084953369140625,0.9962673783302307,-9.23534870147705,3.1546685695648193
1764544906338700300,5.1017001953125,1.057915449142456,-9.224084854125977,3.167523145675659
1764544906355468500,5.118468505859375,1.1059597730636597,-9.213932991027832,3.180631399154663
1764544906372182800,5.135182861328125,1.134908676147461,-9.204644203186035,3.197282552719116
1764544906388990000,5.151989990234375,1.1434239149093628,-9.194974899291992,3.221978187561035
1764544906405731800,5.16873193359375,1.1347633600234985,-9.185128211975098,3.252974510192871
1764544906422472400,5.185472412109375,1.118716835975647,-9.173378944396973,3.2914581298828125
1764544906439272400,5.2022724609375,1.1177886724472046,-9.156048774719238,3.3396778106689453
1764544906456034800,5.219034912109375,1.258175253868103,-9.061030387878418,3.5427145957946777
1764544906472761000,5.235760986328125,1.320000171661377,-9.033243179321289,3.5908567905426025
1764544906489546000,5.2525458984375,1.3924074172973633,-9.01408863067627,3.6115808486938477
1764544906506329000,5.2693291015625,1.468796968460083,-8.997052192687988,3.623779296875
1764544906523051000,5.286051025390625,1.4947524070739746,-8.973182678222656,3.6720314025878906
1764544906539817200,5.302817138671875,1.5218013525009155,-8.969237327575684,3.670560359954834
1764544906556601600,5.3196015625,1.5434238910675049,-8.970322608947754,3.658864974975586
1764544906573362200,5.336362060546875,1.5602775812149048,-8.974954605102539,3.6403086185455322
1764544906590123500,5.35312353515625,1.5611134767532349,-8.976408004760742,3.6363625526428223
1764544906606884600,5.369884521484375,1.526175856590271,-8.975403785705566,3.653634548187256
1764544906623646000,5.38664599609375,1.5217089653015137,-8.979291915893555,3.645934820175171
1764544906640406300,5.40340625,1.5458438396453857,-8.990254402160645,3.6085753440856934
1764544906657123000,5.420123046875,1.580754041671753,-9.004234313964844,3.5582430362701416
1764544906673910000,5.436909912109375,1.5962412357330322,-9.019171714782715,3.513211965560913
1764544906690682600,5.4536826171875,1.583710789680481,-9.031397819519043,3.4873805046081543
1764544906707458000,5.4704580078125,1.5362803936004639,-9.035892486572266,3.496945381164551
1764544906724212700,5.487212646484375,1.4401154518127441,-9.013946533203125,3.5931761264801025
1764544906740973300,5.503973388671875,1.3931512832641602,-8.999218940734863,3.6481919288635254
1764544906757750800,5.520750732421875,1.3989351987838745,-8.993670463562012,3.659640073776245
1764544906774460700,5.537460693359375,1.4171257019042969,-8.981681823730469,3.682020902633667
1764544906791260200,5.55426025390625,1.439845085144043,-8.984478950500488,3.666347026824951
1764544906808018200,5.57101806640625,1.4915332794189453,-8.987382888793945,3.6384639739990234
1764544906824780000,5.587780029296875,1.5588730573654175,-8.991226196289062,3.6005420684814453
1764544906841539800,5.604539794921875,1.620456576347351,-8.99940013885498,3.552607297897339
1764544906858302200,5.62130224609375,1.6580811738967896,-9.010733604431152,3.5062177181243896
1764544906875037400,5.638037353515625,1.6604629755020142,-9.02906322479248,3.457599639892578
1764544906891823900,5.654823974609375,1.6302512884140015,-9.052544593811035,3.410252332687378
1764544906908567000,5.671567138671875,1.5897563695907593,-9.077069282531738,3.36386775970459
1764544906925330000,5.688329833984375,1.5654633045196533,-9.095873832702637,3.3242337703704834
1764544906942081500,5.70508154296875,1.560278296470642,-9.10286808013916,3.3074822425842285
1764544906958868500,5.721868408203125,1.5718227624893188,-9.097256660461426,3.3174431324005127
1764544906975634200,5.73863427734375,1.5913689136505127,-9.085083961486816,3.341395854949951
1764544906992390400,5.755390380859375,1.6139076948165894,-9.069846153259277,3.3718411922454834
1764544907009152800,5.77215283203125,1.6305322647094727,-9.058882713317871,3.39324688911438
1764544907025863700,5.78886376953125,1.6306194067001343,-9.055253982543945,3.4028730392456055
1764544907042680000,5.80568017578125,1.6170096397399902,-9.060622215270996,3.3950748443603516
1764544907059435800,5.822435791015625,1.5860605239868164,-9.073322296142578,3.375697374343872
1764544907076196900,5.83919677734375,1.5354301929473877,-9.090826988220215,3.3519287109375
1764544907092957700,5.855957763671875,1.4665124416351318,-9.113401412963867,3.3213517665863037
1764544907109713700,5.872713623046875,1.3859012126922607,-9.139978408813477,3.2827088832855225
1764544907126485500,5.889485595703125,1.293502926826477,-9.23823356628418,3.036113739013672
1764544907143240700,5.90624072265625,1.1870821714401245,-9.263547897338867,3.002272605895996
1764544907159980500,5.92298046875,1.0896451473236084,-9.267964363098145,3.025496482849121
1764544907176763400,5.939763427734375,1.0027976036071777,-9.263794898986816,3.067997455596924
1764544907193499400,5.95649951171875,0.9252549409866333,-9.255767822265625,3.1162099838256836
1764544907210285600,5.97328564453125,0.8567408919334412,-9.247620582580566,3.1596899032592773
1764544907227047200,5.990047119140625,0.7869946360588074,-9.24384880065918,3.188732624053955
1764544907243807500,6.006807373046875,0.7111549377441406,-9.243260383605957,3.2081949710845947
1764544907260563700,6.023563720703125,0.6386234164237976,-9.245203018188477,3.2178421020507812
1764544907277303600,6.040303466796875,0.5797300338745117,-9.250360488891602,3.214167594909668
1764544907294060300,6.057060302734375,0.5379852056503296,-9.258845329284668,3.1969478130340576
1764544907310858800,6.073858642578125,0.5091286301612854,-9.26993179321289,3.1694252490997314
1764544907327610600,6.090610595703125,0.4848504066467285,-9.280097007751465,3.143376350402832
1764544907344374500,6.10737451171875,0.4558330178260803,-9.287923812866211,3.124551296234131
1764544907361137200,6.12413720703125,0.41947129368782043,-9.292795181274414,3.115147352218628
1764544907377900000,6.140900146484375,0.3785577416419983,-9.294709205627441,3.114670991897583
1764544907394658800,6.157658935546875,0.3370954394340515,-9.29485034942627,3.1190149784088135
1764544907411394000,6.17439404296875,0.2969735860824585,-9.294639587402344,3.1237125396728516
1764544907428136400,6.191136474609375,0.2581922113895416,-9.295186996459961,3.125535488128662
1764544907444912400,6.207912353515625,0.22040092945098877,-9.29667854309082,3.1239840984344482
1764544907461703400,6.224703369140625,0.18250475823879242,-9.298367500305176,3.1214051246643066
1764544907478425300,6.24142529296875,0.14117291569709778,-9.298718452453613,3.1225039958953857
1764544907495225300,6.258225341796875,0.09167593717575073,-9.295243263244629,3.134674549102783
1764544907511981600,6.274981689453125,0.01817702129483223,-9.279775619506836,3.1814398765563965
1764544907528720100,6.29172021484375,-0.1447286754846573,-9.206233024597168,3.3853302001953125
1764544907545508000,6.308508056640625,-0.16547547280788422,-9.189940452575684,3.4283714294433594
1764544907562270200,6.325270263671875,-0.15631289780139923,-9.176830291748047,3.4637389183044434
1764544907578984200,6.341984130859375,-0.12100067734718323,-9.165605545043945,3.494729995727539
1764544907595792100,6.358792236328125,-0.06655213236808777,-9.16114330291748,3.5078697204589844
1764544907612553700,6.3755537109375,-0.20762981474399567,-9.154403686523438,3.5199239253997803
1764544907629273000,6.392273193359375,-0.33516696095466614,-9.166339874267578,3.478795051574707
1764544907646075000,6.409074951171875,-0.31238457560539246,-9.167120933532715,3.478856086730957
1764544907662822000,6.42582177734375,-0.29370200634002686,-9.168821334838867,3.4759981632232666
1764544907679562200,6.442562255859375,-0.2719731628894806,-9.175016403198242,3.461388111114502
1764544907696341200,6.45934130859375,-0.24199433624744415,-9.183743476867676,3.440408229827881
1764544907713120300,6.476120361328125,-0.20010429620742798,-9.197115898132324,3.4072160720825195
1764544907729845000,6.492844970703125,-0.14882144331932068,-9.215306282043457,3.360374689102173
1764544907746648300,6.5096484375,-0.09388187527656555,-9.231856346130371,3.3166446685791016
1764544907763397400,6.5263974609375,-0.04755774512887001,-9.240621566772461,3.293138027191162
1764544907780161500,6.54316162109375,-0.017194030806422234,-9.242592811584473,3.28790283203125
1764544907796925700,6.55992578125,-0.014328456483781338,-9.24087142944336,3.292753219604492
1764544907813687000,6.57668701171875,-0.03735639899969101,-9.234777450561523,3.3096237182617188
1764544907830443500,6.593443603515625,-0.07405484467744827,-9.223868370056152,3.3392982482910156
1764544907847209500,6.61020947265625,-0.1066209152340889,-9.20973014831543,3.37722110748291
1764544907863970600,6.626970458984375,-0.11824605613946915,-9.194768905639648,3.4173638820648193
1764544907880693000,6.64369287109375,-0.09820311516523361,-9.180400848388672,3.4564027786254883
1764544907897511400,6.660511474609375,-0.04585064947605133,-9.16556453704834,3.4966342449188232
1764544907914229200,6.677229248046875,0.02686912566423416,-9.149430274963379,3.538831949234009
1764544907931006000,6.694005859375,0.13511717319488525,-9.136343955993652,3.570028305053711
1764544907947739000,6.71073876953125,0.5318412780761719,-9.145004272460938,3.5102925300598145
1764544907964511700,6.72751171875,0.6350080966949463,-9.131396293640137,3.5285253524780273
1764544907981284600,6.74428466796875,0.6667758822441101,-9.120604515075684,3.550504446029663
1764544907998048500,6.761048583984375,0.6907202005386353,-9.11290168762207,3.5656754970550537
1764544908014814700,6.777814697265625,0.7129836082458496,-9.106606483459473,3.5773582458496094
1764544908031572200,6.794572265625,0.7336656451225281,-9.099775314331055,3.5905346870422363
1764544908048342300,6.81134228515625,0.7558251619338989,-9.08969783782959,3.611402750015259
1764544908065104100,6.828104248046875,0.7940745949745178,-9.074496269226074,3.6413016319274902
1764544908081862400,6.8448623046875,0.8748934864997864,-9.050207138061523,3.6829943656921387
1764544908098632700,6.8616328125,0.9321577548980713,-9.03130054473877,3.715210437774658
1764544908115387600,6.8783876953125,0.9950724840164185,-9.011173248291016,3.747626543045044
1764544908132105000,6.89510498046875,1.0482885837554932,-8.99304485321045,3.776555299758911
1764544908148909600,6.91190966796875,1.081781029701233,-8.978487014770508,3.801663637161255
1764544908165671200,6.928671142578125,1.0960984230041504,-8.968982696533203,3.8199551105499268
1764544908182393300,6.945393310546875,1.1013612747192383,-8.964118957519531,3.8298423290252686
1764544908199163400,6.962163330078125,1.1106371879577637,-8.96006965637207,3.836634397506714
1764544908215955000,6.978954833984375,1.1325615644454956,-8.952934265136719,3.8468687534332275
1764544908232682200,6.99568212890625,1.171107292175293,-8.940611839294434,3.8639464378356934
1764544908249476000,7.01247607421875,1.2196283340454102,-8.926470756530762,3.8815886974334717
1764544908266231800,7.029231689453125,1.2658603191375732,-8.913687705993652,3.89613938331604
1764544908282977000,7.04597705078125,1.3026342391967773,-8.904059410095215,3.906017780303955
1764544908299759600,7.062759521484375,1.3268884420394897,-8.898978233337402,3.9094321727752686
1764544908316521200,7.079521240234375,1.3424550294876099,-8.898345947265625,3.9055542945861816
1764544908333283300,7.096283447265625,1.353039026260376,-8.901657104492188,3.894341468811035
1764544908350043400,7.11304345703125,1.3630614280700684,-8.908658981323242,3.8747904300689697
1764544908366804700,7.1298046875,1.374707818031311,-8.91797161102295,3.849165439605713
1764544908383565600,7.146565673828125,1.3860280513763428,-8.928948402404785,3.819542407989502
1764544908400326400,7.163326416015625,1.395510196685791,-8.941316604614258,3.7870190143585205
1764544908417088500,7.180088623046875,1.4036086797714233,-8.954792022705078,3.7520275115966797
1764544908433843700,7.19684375,1.4108140468597412,-8.96922492980957,3.7146615982055664
1764544908450566100,7.213566162109375,1.41599440574646,-8.983810424804688,3.6772570610046387
1764544908467371800,7.230371826171875,1.4204621315002441,-8.998687744140625,3.6389570236206055
1764544908484131300,7.24713134765625,1.4221532344818115,-9.011821746826172,3.605644941329956
1764544908500893700,7.263893798828125,1.4173645973205566,-9.022443771362305,3.580883026123047
1764544908517655300,7.2806552734375,1.4037196636199951,-9.027725219726562,3.5729336738586426
1764544908534400500,7.297400390625,1.3717964887619019,-9.003556251525879,3.645585060119629
1764544908551177000,7.314177001953125,1.3397879600524902,-8.957551002502441,3.768737554550171
1764544908567939000,7.33093896484375,1.3106074333190918,-8.911161422729492,3.887108325958252
1764544908584699400,7.347699462890625,1.303879737854004,-8.892001152038574,3.9329800605773926
1764544908601460500,7.36446044921875,1.3124228715896606,-8.889745712280273,3.9352383613586426
1764544908618222300,7.381222412109375,1.328629970550537,-8.892590522766113,3.923352003097534
1764544908634951000,7.397950927734375,1.3506877422332764,-8.895153999328613,3.9099860191345215
1764544908651743500,7.414743408203125,1.3820520639419556,-8.896543502807617,3.8958399295806885
1764544908668505000,7.431505126953125,1.417081356048584,-8.8975191116333,3.8809988498687744
1764544908685238500,7.448238525390625,1.4465348720550537,-8.89946174621582,3.865645408630371
1764544908701981000,7.46498095703125,1.461733341217041,-8.902552604675293,3.8527944087982178
1764544908718788600,7.48178857421875,1.4578497409820557,-8.90593433380127,3.846442461013794
1764544908735524400,7.4985244140625,1.4390363693237305,-8.907870292663574,3.8490421772003174
1764544908752310500,7.515310546875,1.4157131910324097,-8.906848907470703,3.8600404262542725
1764544908769073000,7.532072998046875,1.4012006521224976,-8.90304183959961,3.8740956783294678
1764544908785793800,7.548793701171875,1.4023455381393433,-8.897834777832031,3.8856236934661865
1764544908802578200,7.565578125,1.4134243726730347,-8.894434928894043,3.8893935680389404
1764544908819356200,7.582356201171875,1.4276137351989746,-8.896644592285156,3.8791465759277344
1764544908836117800,7.59911767578125,1.447478175163269,-8.911130905151367,3.838315486907959
1764544908852877600,7.615877685546875,1.5562392473220825,-9.027175903320312,3.5106029510498047
1764544908869633000,7.632633056640625,1.567535638809204,-9.082073211669922,3.3607888221740723
1764544908886407000,7.649406982421875,1.5313758850097656,-9.107254981994629,3.308915615081787
1764544908903161000,7.6661611328125,1.4706873893737793,-9.1270751953125,3.281721830368042
1764544908919922400,7.68292236328125,1.3863948583602905,-9.141744613647461,3.2775802612304688
1764544908936651500,7.699651611328125,1.2790477275848389,-9.148197174072266,3.303130865097046
1764544908953399800,7.71639990234375,1.153952717781067,-9.144993782043457,3.3576204776763916
1764544908970206700,7.733206787109375,0.9353260397911072,-9.173542976379395,3.3477416038513184
1764544908986947300,7.749947265625,0.8225877285003662,-9.157185554504395,3.4213194847106934
1764544909003728000,7.766727783203125,0.7358729839324951,-9.14007568359375,3.4862053394317627
1764544909020489500,7.783489501953125,0.6771420836448669,-9.127029418945312,3.531984567642212
1764544909037255700,7.800255615234375,0.6466147899627686,-9.121492385864258,3.5519537925720215
1764544909053986300,7.816986328125,0.6417500972747803,-9.120607376098633,3.5551061630249023
1764544909070773200,7.833773193359375,0.6585175395011902,-9.121387481689453,3.550039291381836
1764544909087534300,7.850534423828125,0.6883925795555115,-9.124682426452637,3.535872459411621
1764544909104295000,7.867294921875,0.7155802249908447,-9.131840705871582,3.511915445327759
1764544909121056300,7.88405615234375,0.7256919741630554,-9.140243530273438,3.487898826599121
1764544909137801700,7.9008017578125,0.7068222761154175,-9.14921760559082,3.468191146850586
1764544909154579200,7.9175791015625,0.6600515842437744,-9.158143043518066,3.453822135925293
1764544909171340000,7.934340087890625,0.5952576994895935,-9.167381286621094,3.4410645961761475
1764544909188104700,7.951104736328125,0.523887574672699,-9.177956581115723,3.424436569213867
1764544909204830000,7.967829833984375,0.4572145640850067,-9.19011116027832,3.401311159133911
1764544909221623300,7.984623291015625,0.4032178819179535,-9.20383071899414,3.3709094524383545
1764544909238341400,8.00134130859375,0.37060895562171936,-9.21735954284668,3.337522506713867
1764544909255145700,8.018145751953124,0.36423200368881226,-9.227909088134766,3.3089475631713867
1764544909271900700,8.034900634765625,0.37834569811820984,-9.237189292907715,3.2813589572906494
1764544909288639000,8.051638916015625,0.40114590525627136,-9.244699478149414,3.257408857345581
1764544909305423000,8.068423095703125,0.42373794317245483,-9.24854564666748,3.2436044216156006
1764544909322196700,8.08519677734375,0.4447532892227173,-9.248629570007324,3.2405478954315186
1764544909338951200,8.101951171875,0.46928688883781433,-9.245655059814453,3.245577096939087
1764544909355712000,8.1187119140625,0.49896499514579773,-9.241103172302246,3.2541005611419678
1764544909372474400,8.135474365234375,0.5269620418548584,-9.236627578735352,3.262385606765747
1764544909389239300,8.1522392578125,0.5474529266357422,-9.2330904006958,3.2690157890319824
1764544909405996000,8.16899609375,0.5528829097747803,-9.230631828308105,3.2750401496887207
1764544909422756900,8.1857568359375,0.5523378252983093,-9.225805282592773,3.288699150085449
1764544909439488500,8.202488525390624,0.5584163069725037,-9.220129013061523,3.3035576343536377
1764544909456259800,8.219259765625,0.5843960642814636,-9.215865135192871,3.3109569549560547
1764544909473041400,8.23604150390625,0.6313572525978088,-9.214373588562012,3.306483268737793
1764544909489777000,8.25277685546875,0.6802114248275757,-9.217391967773438,3.2883307933807373
1764544909506569000,8.26956884765625,0.5389100909233093,-9.263792037963867,3.182425022125244
1764544909523324400,8.286324462890626,0.3502250015735626,-9.303801536560059,3.090751886367798
1764544909540057300,8.303057373046874,0.32698845863342285,-9.31182861328125,3.0690457820892334
1764544909556844500,8.319844482421875,0.3190017342567444,-9.319454193115234,3.0466582775115967
1764544909573610200,8.3366103515625,0.3092849850654602,-9.328413009643555,3.0201303958892822
1764544909590359800,8.35335986328125,0.3015928268432617,-9.337358474731445,2.99314284324646
1764544909607130000,8.370130126953125,0.30354711413383484,-9.345928192138672,2.9660730361938477
1764544909623891700,8.3868916015625,0.31905174255371094,-9.354804039001465,2.93632435798645
1764544909640648200,8.403648193359375,0.34736818075180054,-9.36472225189209,2.9012820720672607
1764544909657413400,8.420413330078125,0.3861698806285858,-9.375702857971191,2.860628128051758
1764544909674198300,8.4371982421875,0.4238598644733429,-9.386609077453613,2.8192262649536133
1764544909690937000,8.45393701171875,0.44592124223709106,-9.397489547729492,2.7792928218841553
1764544909707662000,8.470662109375,0.4396483600139618,-9.408182144165039,2.7438879013061523
1764544909724458200,8.487458251953125,0.4041956067085266,-9.41616153717041,2.7218828201293945
1764544909741213200,8.504213134765624,0.3570304214954376,-9.418586730957031,2.7200863361358643
1764544909757977300,8.520977294921876,0.31509265303611755,-9.414327621459961,2.739940643310547
1764544909774742300,8.5377421875,0.2892123758792877,-9.404315948486328,2.7769224643707275
1764544909791502800,8.5545029296875,0.280519962310791,-9.390382766723633,2.824554443359375
1764544909808257000,8.571257080078125,0.28107112646102905,-9.374509811401367,2.8767478466033936
1764544909825032000,8.588031982421874,0.2828213572502136,-9.358076095581055,2.9296000003814697
1764544909841786400,8.604786376953125,0.28287631273269653,-9.34272289276123,2.978195905685425
1764544909858547700,8.621547607421874,0.27554041147232056,-9.328736305236816,3.0223965644836426
1764544909875309000,8.63830908203125,0.26175618171691895,-9.3157958984375,3.063260793685913
1764544909892037000,8.655037109375,0.2684844136238098,-9.305257797241211,3.0945425033569336
1764544909908835300,8.67183544921875,0.3773021399974823,-9.301361083984375,3.0949063301086426
1764544909925592000,8.688592041015625,0.7513238787651062,-9.293648719787598,3.0495455265045166
1764544909942326000,8.705325927734375,1.165499210357666,-9.25281810760498,3.043529748916626
1764544909959081000,8.7220810546875,1.3186352252960205,-9.22060489654541,3.078598976135254
1764544909975876000,8.7388759765625,1.4213775396347046,-9.192641258239746,3.1162679195404053
1764544909992598500,8.7555986328125,1.477138876914978,-9.17454719543457,3.1435413360595703
1764544910009397500,8.7723974609375,1.495068073272705,-9.166823387145996,3.1575708389282227
1764544910026159400,8.789159423828124,1.505832314491272,-9.161712646484375,3.1672682762145996
1764544910042882000,8.805882080078124,1.521618366241455,-9.15610408782959,3.175934314727783
1764544910059676700,8.8226767578125,1.5418787002563477,-9.150854110717773,3.1812875270843506
1764544910076446700,8.83944677734375,1.5547600984573364,-9.149237632751465,3.17966890335083
1764544910109966000,8.872966064453125,1.5161547660827637,-9.151092529296875,3.192941427230835
1764544910126731500,8.8897314453125,1.496812105178833,-9.144110679626465,3.2219440937042236
1764544910143483000,8.90648291015625,1.486182451248169,-9.130354881286621,3.265580415725708
1764544910160247600,8.92324755859375,1.4916852712631226,-9.115388870239258,3.304645538330078
1764544910177010200,8.94001025390625,1.5163424015045166,-9.099638938903809,3.336670398712158
1764544910193773800,8.95677392578125,1.5581140518188477,-9.08160400390625,3.366429567337036
1764544910210538000,8.9735380859375,1.6062653064727783,-9.061958312988281,3.396603584289551
1764544910227293200,8.990293212890625,1.6450793743133545,-9.046187400817871,3.4199914932250977
1764544910244036600,9.00703662109375,1.6702016592025757,-9.037442207336426,3.4309167861938477
1764544910260808400,9.023808349609375,1.679998517036438,-9.03337574005127,3.4368398189544678
1764544910277583000,9.0405830078125,1.677868127822876,-9.032702445983887,3.4396438598632812
1764544910302718500,9.065718505859374,1.66892409324646,-9.036555290222168,3.433868646621704
1764544910319436000,9.08243603515625,1.6729156970977783,-9.039328575134277,3.4246156215667725
1764544910336240400,9.099240478515625,1.6826608180999756,-9.041359901428223,3.4144647121429443
1764544910353002000,9.116001953125,1.6916855573654175,-9.043145179748535,3.405266046524048
1764544910369718300,9.13271826171875,1.692702293395996,-9.045564651489258,3.3983302116394043
1764544910386515700,9.149515625,1.681654453277588,-9.04991340637207,3.392228603363037
1764544910403285200,9.16628515625,1.6568852663040161,-9.056574821472168,3.386634111404419
1764544910420013000,9.183012939453125,1.636970043182373,-9.065347671508789,3.3728177547454834
1764544910436807700,9.1998076171875,1.6230067014694214,-9.07505989074707,3.35339617729187
1764544910453563000,9.21656298828125,1.6159929037094116,-9.085620880126953,3.3280911445617676
1764544910470308400,9.233308349609375,1.6114096641540527,-9.09615421295166,3.3014345169067383
1764544910487090700,9.250090576171875,1.6025917530059814,-9.106501579284668,3.2771072387695312
1764544910503852500,9.2668525390625,1.5839557647705078,-9.11588191986084,3.260044574737549
1764544910520617000,9.283616943359375,1.554451823234558,-9.124150276184082,3.2511022090911865
1764544910537374200,9.300374267578125,1.5177048444747925,-9.126420021057129,3.2620766162872314
1764544910554110700,9.31711083984375,1.451533317565918,-9.103675842285156,3.3544349670410156
1764544910570853600,9.333853515625,1.3388934135437012,-9.036542892456055,3.5755250453948975
1764544910587657500,9.350657470703124,1.3353586196899414,-9.01746654510498,3.624671697616577
1764544910604419600,9.367419677734375,1.3465924263000488,-9.002729415893555,3.6570041179656982
1764544910621141200,9.384141357421875,1.368314504623413,-9.001155853271484,3.65280818939209
1764544910637931000,9.400930908203126,1.3991848230361938,-9.000105857849121,3.6436917781829834
1764544910654703000,9.417703125,1.4396657943725586,-8.998834609985352,3.6310417652130127
1764544910671431000,9.434430908203124,1.4824905395507812,-8.9981107711792,3.615570068359375
1764544910688224500,9.451224609375,1.521611213684082,-8.99832820892334,3.59873366355896
1764544910704989400,9.467989501953125,1.549986481666565,-8.999320030212402,3.5841197967529297
1764544910721717000,9.484717041015625,1.5638784170150757,-9.000994682312012,3.573866367340088
1764544910738508800,9.5015087890625,1.565365195274353,-9.003288269042969,3.567427396774292
1764544910755270100,9.518270263671875,1.5638525485992432,-9.004939079284668,3.563924551010132
1764544910772024800,9.53502490234375,1.5706114768981934,-9.004409790039062,3.5622880458831787
1764544910788797700,9.551797607421875,1.5875065326690674,-9.001151084899902,3.563035488128662
1764544910805554000,9.568553955078125,1.6074802875518799,-8.997905731201172,3.562279224395752
1764544910822297600,9.585297607421875,1.6225037574768066,-8.996635437011719,3.5586729049682617
1764544910839075300,9.602075439453126,1.626512050628662,-8.998054504394531,3.5532498359680176
1764544910855810800,9.618810791015624,1.6169449090957642,-9.001662254333496,3.5484752655029297
1764544910872601300,9.635601318359376,1.594630479812622,-9.0079345703125,3.542656183242798
1764544910889350700,9.6523505859375,1.5633214712142944,-9.01699161529541,3.5335521697998047
1764544910906121000,9.669120849609374,1.5267865657806396,-9.028142929077148,3.521030902862549
1764544910922836700,9.685836669921875,1.484541416168213,-9.040574073791504,3.5071752071380615
1764544910939642600,9.702642578125,1.433823585510254,-9.053521156311035,3.4948551654815674
1764544910956402700,9.719402587890626,1.3766390085220337,-9.066513061523438,3.4841556549072266
1764544910973127400,9.73612744140625,1.3179361820220947,-9.077921867370605,3.4771387577056885
1764544910989919200,9.752919189453126,1.2613314390182495,-9.086957931518555,3.4745302200317383
1764544911006694400,9.7696943359375,1.2085392475128174,-9.093193054199219,3.4769785404205322
1764544911023445200,9.7864453125,1.1580413579940796,-9.096671104431152,3.4850571155548096
1764544911040209400,9.80320947265625,1.10486900806427,-9.098005294799805,3.4988138675689697
1764544911056970800,9.819970703125,1.0430328845977783,-9.099547386169434,3.513749122619629
1764544911073752300,9.83675244140625,0.952654242515564,-9.142802238464355,3.426038980484009
1764544911090492400,9.853492431640625,0.8440282344818115,-9.227324485778809,3.221839666366577
1764544911107254500,9.870254638671875,0.7741268277168274,-9.218822479248047,3.263458013534546
1764544911123986200,9.886986083984375,0.7087641358375549,-9.204544067382812,3.3181517124176025
1764544911140734500,9.903734375,0.6448854207992554,-9.187289237976074,3.378455638885498
1764544911157512400,9.920512451171875,0.5825744867324829,-9.168750762939453,3.439584493637085
1764544911174273000,9.93727294921875,0.5294829607009888,-9.1492280960083,3.4996249675750732
1764544911191034400,9.954034423828125,0.4974413812160492,-9.130237579345703,3.5535080432891846
1764544911207801000,9.970801025390625,0.4876263737678528,-9.115669250488281,3.5920639038085938
1764544911224550700,9.987550537109374,0.4888985753059387,-9.10826301574707,3.6106297969818115
1764544911241344300,10.00434423828125,0.485075980424881,-9.105268478393555,3.6186883449554443
1764544911258105600,10.021105712890625,0.46620815992355347,-9.10659122467041,3.6178431510925293
1764544911274880000,10.0378798828125,0.4291347861289978,-9.111690521240234,3.6095783710479736
1764544911291626800,10.054626708984374,0.3797595798969269,-9.11898136138916,3.5966765880584717
1764544911308389000,10.07138916015625,0.32838284969329834,-9.127227783203125,3.580782413482666
1764544911325149000,10.08814892578125,0.2826786935329437,-9.13570499420166,3.5630199909210205
1764544911341910800,10.104910888671874,0.2461138516664505,-9.143816947937012,3.5448789596557617
1764544911358672100,10.121672119140625,0.2193577140569687,-9.150446891784668,3.529494047164917
1764544911375433200,10.13843310546875,0.2027277946472168,-9.153519630432129,3.5225088596343994
1764544911392152000,10.155152099609374,0.1973983496427536,-9.152565956115723,3.5252938270568848
1764544911408956200,10.1719560546875,0.2042550891637802,-9.148366928100586,3.5357863903045654
1764544911425716000,10.188716064453125,0.22212082147598267,-9.141904830932617,3.5513861179351807
1764544911442477800,10.205477783203126,0.246554434299469,-9.134521484375,3.568727731704712
1764544911459235300,10.2222353515625,0.2725856602191925,-9.127900123596191,3.583745002746582
1764544911476004000,10.239004150390626,0.2971493601799011,-9.12275505065918,3.594881296157837
1764544911492760800,10.2557607421875,0.3212888836860657,-9.119893074035645,3.6000595092773438
1764544911509520100,10.27252001953125,0.3486534059047699,-9.119409561157227,3.5987417697906494
1764544911526285600,10.28928564453125,0.38264092803001404,-9.119577407836914,3.5948598384857178
1764544911543044900,10.306044921875,0.42333799600601196,-9.119155883789062,3.5913639068603516
1764544911559806200,10.32280615234375,0.4641439616680145,-9.11707878112793,3.591597318649292
1764544911576566800,10.33956689453125,0.48428234457969666,-9.113335609436035,3.598428964614868
1764544911593327600,10.35632763671875,0.5160156488418579,-9.110320091247559,3.601654052734375
1764544911610090200,10.37309033203125,0.5512514114379883,-9.109110832214355,3.599490165710449
1764544911626850000,10.38985009765625,0.5893067121505737,-9.11095142364502,3.5887842178344727
1764544911643586800,10.4065869140625,0.6341918110847473,-9.11540412902832,3.569779396057129
1764544911660373000,10.423373046875,0.684106707572937,-9.121416091918945,3.5451228618621826
1764544911677134300,10.44013427734375,0.7239790558815002,-9.128803253173828,3.5180840492248535
1764544911693879600,10.456879638671875,0.7463668584823608,-9.136374473571777,3.4936676025390625
1764544911710650600,10.473650634765624,0.7558362483978271,-9.144988059997559,3.4690093994140625
1764544911727423500,10.490423583984375,0.7474058866500854,-9.156729698181152,3.43973970413208
1764544911744173300,10.50717333984375,0.7344799041748047,-9.16934871673584,3.4087674617767334
1764544911760945700,10.523945556640625,0.7283651828765869,-9.181239128112793,3.377939224243164
1764544911777701000,10.540701171875,0.7308334112167358,-9.193341255187988,3.3443238735198975
1764544911794462700,10.557462646484375,0.7459904551506042,-9.206206321716309,3.3053574562072754
1764544911811224600,10.574224609375,0.770726203918457,-9.220503807067871,3.259510040283203
1764544911827984000,10.59098388671875,0.7951862812042236,-9.236117362976074,3.2090394496917725
1764544911844746000,10.60774609375,0.8117675185203552,-9.251049995422363,3.1615214347839355
1764544911861507300,10.62450732421875,0.8158246278762817,-9.264134407043457,3.1219146251678467
1764544911878268400,10.641268310546875,0.8099325299263,-9.274615287780762,3.092188835144043
1764544911895018000,10.65801806640625,0.7999016046524048,-9.281855583190918,3.0730137825012207
1764544911911791400,10.674791259765625,0.7923429012298584,-9.284937858581543,3.0656561851501465
1764544911928551200,10.69155126953125,0.7897297739982605,-9.282537460327148,3.073589563369751
1764544911945312800,10.708312744140626,0.7927395105361938,-9.273685455322266,3.0994279384613037
1764544911962068000,10.72506787109375,0.8011071681976318,-9.25922679901123,3.140230417251587
1764544911978841900,10.741841796875,0.8164452910423279,-9.240887641906738,3.189911127090454
1764544911995596300,10.75859619140625,0.838233470916748,-9.22016429901123,3.24377179145813
1764544912012358700,10.775358642578125,0.864808201789856,-9.199016571044922,3.296407461166382
1764544912029118500,10.792118408203125,0.9064791202545166,-9.181681632995605,3.333334445953369
1764544912045880300,10.80888037109375,1.2686195373535156,-9.215012550354004,3.116126298904419
1764544912062641400,10.825641357421874,1.315425992012024,-9.20232105255127,3.1341724395751953
1764544912079402200,10.84240234375,1.3236085176467896,-9.190659523010254,3.1647937297821045
1764544912096163600,10.85916357421875,1.315846562385559,-9.182586669921875,3.191356897354126
1764544912112925400,10.875925537109374,1.2914187908172607,-9.176453590393066,3.218860149383545
1764544912129685800,10.892685791015625,1.2548201084136963,-9.171520233154297,3.2472689151763916
1764544912146414300,10.909414306640626,1.2140265703201294,-9.167098999023438,3.275141477584839
1764544912163208700,10.926208740234374,1.1773580312728882,-9.161212921142578,3.304858684539795
1764544912179977500,10.9429775390625,1.1517939567565918,-9.153165817260742,3.3360202312469482
1764544912196730600,10.959730712890625,1.1394281387329102,-9.143245697021484,3.367325782775879
1764544912213492700,10.97649267578125,1.1393651962280273,-9.131278991699219,3.3996620178222656
1764544912230259700,10.993259765625,1.1470082998275757,-9.117781639099121,3.433154344558716
1764544912247008000,11.010008056640626,1.1600109338760376,-9.102919578552246,3.4680473804473877
1764544912263775500,11.026775390625,1.1764816045761108,-9.086993217468262,3.5040788650512695
1764544912280536800,11.043536865234374,1.1952325105667114,-9.07537841796875,3.527754068374634
1764544912297297700,11.060297607421875,1.2162408828735352,-9.06668758392334,3.542890787124634
1764544912314034400,11.077034423828126,1.2426484823226929,-9.043717384338379,3.5920891761779785
1764544912330819600,11.093819580078126,1.2677730321884155,-8.994038581848145,3.706228017807007
1764544912347582000,11.11058203125,1.2801737785339355,-8.978302001953125,3.7399675846099854
1764544912364343000,11.127343017578125,1.2851303815841675,-8.973532676696777,3.749706745147705
1764544912381103900,11.144103759765626,1.2889269590377808,-8.97375774383545,3.747858762741089
1764544912397854700,11.160854736328124,1.2980743646621704,-8.975822448730469,3.7397515773773193
1764544912414627000,11.177626953125,1.3138110637664795,-8.977898597717285,3.729255199432373
1764544912431361300,11.194361328125,1.3345760107040405,-8.980477333068848,3.7156455516815186
1764544912448148700,11.211148681640625,1.3574117422103882,-8.984870910644531,3.696707248687744
1764544912464909800,11.227909912109375,1.3816049098968506,-8.99250316619873,3.6690821647644043
1764544912481671000,11.2446708984375,1.4021915197372437,-9.003870964050293,3.6332216262817383
1764544912498431700,11.261431640625,1.419360637664795,-9.018759727478027,3.589355230331421
1764544912515194000,11.278194091796875,1.4328852891921997,-9.036799430847168,3.538249969482422
1764544912531954200,11.2949541015625,1.4342460632324219,-9.05827808380127,3.4823389053344727
1764544912548716000,11.311716064453124,1.4111939668655396,-9.079361915588379,3.436542510986328
1764544912565479000,11.32847900390625,1.39424729347229,-9.09900951385498,3.3911993503570557
1764544912582236000,11.34523583984375,1.3929840326309204,-9.11719799041748,3.3425180912017822
1764544912598999000,11.3619990234375,1.3908770084381104,-9.133337020874023,3.2990496158599854
1764544912615761400,11.378761474609375,1.3887776136398315,-9.14457893371582,3.268653392791748
1764544912632521000,11.39552099609375,1.3865207433700562,-9.150389671325684,3.2533156871795654
1764544912649245000,11.412244873046875,1.3845487833023071,-9.150815963745117,3.2529587745666504
1764544912666044400,11.42904443359375,1.385750412940979,-9.141702651977539,3.277970314025879
1764544912682784300,11.4457841796875,1.3870394229888916,-9.100743293762207,3.389500617980957
1764544912699566600,11.462566650390626,1.3790264129638672,-8.996211051940918,3.66095232963562
1764544912716328400,11.479328369140624,1.3894097805023193,-8.90076732635498,3.883554220199585
1764544912733088800,11.4960888671875,1.4293216466903687,-8.901494979858398,3.867372512817383
1764544912749839000,11.512839111328125,1.4675493240356445,-8.90888786315918,3.835899829864502
1764544912766622500,11.52962255859375,1.4960038661956787,-8.91956901550293,3.799916982650757
1764544912783372800,11.546372802734375,1.508399248123169,-8.930012702941895,3.770369291305542
1764544912800133400,11.56313330078125,1.5080206394195557,-8.939619064331055,3.747692108154297
1764544912816895700,11.579895751953124,1.5066184997558594,-8.946521759033203,3.73174786567688
1764544912833656000,11.596656005859375,1.5139448642730713,-8.948446273803711,3.72416353225708
1764544912850417400,11.61341748046875,1.5292073488235474,-8.945626258850098,3.7247016429901123
1764544912867178000,11.630177978515626,1.5425101518630981,-8.941307067871094,3.7295825481414795
1764544912883939800,11.64693994140625,1.5411553382873535,-8.939652442932129,3.7341110706329346
1764544912900681700,11.663681640625,1.5220444202423096,-8.941701889038086,3.7370429039001465
1764544912917463000,11.680463134765626,1.4910391569137573,-8.9461088180542,3.738990306854248
1764544912934248200,11.697248291015624,1.455979824066162,-8.955443382263184,3.7304527759552
1764544912950984700,11.713984619140625,1.4550132751464844,-9.016793251037598,3.580012083053589
1764544912967745800,11.730745849609375,1.439644694328308,-9.072123527526855,3.443852663040161
1764544912984507400,11.74750732421875,1.3812155723571777,-9.08334732055664,3.4381933212280273
1764544913001266400,11.764266357421874,1.3103978633880615,-9.091684341430664,3.4438703060150146
1764544913018030800,11.78103076171875,1.2308746576309204,-9.096156120300293,3.4613606929779053
1764544913034791000,11.797791015625,1.1501786708831787,-9.096409797668457,3.4883408546447754
1764544913051551700,11.8145517578125,1.0742607116699219,-9.093055725097656,3.5211398601531982
1764544913068313300,11.831313232421875,0.9790537357330322,-9.109460830688477,3.5064642429351807
1764544913085074400,11.848074462890626,0.8377620577812195,-9.164182662963867,3.398827314376831
1764544913101834800,11.864834716796874,0.7766338586807251,-9.155041694641113,3.437756299972534
1764544913118596600,11.8815966796875,0.7080312371253967,-9.150805473327637,3.4637532234191895
1764544913135358000,11.89835791015625,0.6336320042610168,-9.14877986907959,3.483454704284668
1764544913152095500,11.915095458984375,0.5688276290893555,-9.143827438354492,3.507559061050415
1764544913168880000,11.931880126953125,0.5328844785690308,-9.135355949401855,3.535170793533325
1764544913185638000,11.948637939453125,0.5350725650787354,-9.125972747802734,3.5589897632598877
1764544913202402000,11.965402099609374,0.5647636651992798,-9.114899635314941,3.58270263671875
1764544913219164400,11.982164306640625,0.596733808517456,-9.101860046386719,3.6105663776397705
1764544913235925500,11.998925537109375,0.6139752268791199,-9.089770317077637,3.638024091720581
1764544913252682500,12.0156826171875,0.6106934547424316,-9.080724716186523,3.6610937118530273
1764544913269453800,12.032453857421874,0.5893309712409973,-9.076675415039062,3.674610137939453
1764544913286208800,12.049208740234375,0.5559876561164856,-9.078484535217285,3.675340175628662
1764544913302969000,12.065968994140626,0.5165227055549622,-9.08644962310791,3.6613852977752686
1764544913319731500,12.0827314453125,0.47614479064941406,-9.099451065063477,3.634474992752075
1764544913336492000,12.099491943359375,0.4439333379268646,-9.11306095123291,3.6043221950531006
1764544913353257500,12.116257568359375,0.4343944787979126,-9.1215238571167,3.5840206146240234
1764544913370012700,12.1330126953125,0.45906710624694824,-9.123942375183105,3.574779987335205
1764544913386778400,12.1497783203125,0.517804741859436,-9.12015151977539,3.5764269828796387
1764544913403511800,12.16651171875,0.5943861603736877,-9.111115455627441,3.5875353813171387
1764544913420298800,12.183298828125,0.6703494191169739,-9.098155975341797,3.606983184814453
1764544913437064000,12.20006396484375,0.7334496378898621,-9.082632064819336,3.6337227821350098
1764544913453795600,12.216795654296876,0.7779622673988342,-9.066367149353027,3.6649553775787354
1764544913470581800,12.233581787109374,0.8017594218254089,-9.051085472106934,3.697453260421753
1764544913487343400,12.25034326171875,0.8141575455665588,-9.038074493408203,3.726454019546509
1764544913504098000,12.26709814453125,0.8308193683624268,-9.026952743530273,3.749666929244995
1764544913520871700,12.28387158203125,0.8475052714347839,-9.019851684570312,3.762996196746826
1764544913537626400,12.30062646484375,0.8706700205802917,-9.016176223754883,3.766512393951416
1764544913554388500,12.317388427734375,0.9030814170837402,-9.014629364013672,3.762582302093506
1764544913571149000,12.334149169921876,0.9380368590354919,-9.012224197387695,3.7597899436950684
1764544913587911000,12.350910888671875,0.9610795378684998,-9.007399559020996,3.7655282020568848
1764544913604646000,12.36764599609375,0.961392343044281,-9.003023147583008,3.7758994102478027
1764544913621424600,12.384424560546876,0.9437381625175476,-8.999996185302734,3.7875521183013916
1764544913638201900,12.401201904296874,0.9096809029579163,-8.999894142150879,3.7961153984069824
1764544913654952700,12.41795263671875,0.8284116387367249,-9.014345169067383,3.780397653579712
1764544913671716600,12.434716552734375,0.5685619115829468,-9.071009635925293,3.691833972930908
1764544913688452400,12.451452392578124,0.20975761115550995,-9.146692276000977,3.539794921875
1764544913705238300,12.46823828125,0.1587897688150406,-9.154664039611816,3.5217933654785156
1764544913721994500,12.484994384765624,0.13008125126361847,-9.156731605529785,3.51759672164917
1764544913738767000,12.50176708984375,0.10737140476703644,-9.158607482910156,3.5134713649749756
1764544913755520300,12.518520263671874,0.09948160499334335,-9.161602973937988,3.505885124206543
1764544913772286000,12.535285888671876,0.10254715383052826,-9.166142463684082,3.4939124584198
1764544913789045200,12.552045166015626,0.10003606975078583,-9.17130184173584,3.480421304702759
1764544913805805600,12.5688056640625,0.08095178008079529,-9.175661087036133,3.469411611557007
1764544913822568000,12.58556787109375,0.045894503593444824,-9.17589282989502,3.469437599182129
1764544913839328800,12.602328857421876,0.004500163719058037,-9.168550491333008,3.4890902042388916
1764544913856094000,12.619093994140625,-0.02254379540681839,-9.152798652648926,3.530137062072754
1764544913872851200,12.635851318359375,-0.034237202256917953,-9.128878593444824,3.591453790664673
1764544913889606100,12.652606201171874,-0.02728544920682907,-9.098197937011719,3.668534994125366
1764544913906379300,12.669379150390625,-0.007957476191222668,-9.063379287719727,3.7538256645202637
1764544913923135000,12.686135009765625,0.012362184002995491,-9.02773380279541,3.838747262954712
1764544913939892200,12.702892333984375,0.025390658527612686,-8.994373321533203,3.916210889816284
1764544913956646400,12.719646484375,0.02834218554198742,-8.96519947052002,3.9825267791748047
1764544913973422800,12.7364228515625,0.0524270161986351,-8.946518898010254,4.0240702629089355
1764544913990179600,12.7531796875,0.2977340817451477,-8.95577335357666,3.9926915168762207
1764544914006935000,12.76993505859375,0.26796168088912964,-8.949037551879883,4.0098676681518555
1764544914023708000,12.7867080078125,0.22461992502212524,-8.947916984558105,4.01502799987793
1764544914040462800,12.803462890625,0.18159450590610504,-8.946906089782715,4.0194525718688965
1764544914057224200,12.82022412109375,0.15447072684764862,-8.942551612854004,4.0302629470825195
1764544914073960200,12.836960205078125,0.14298225939273834,-8.934858322143555,4.0477118492126465
1764544914090741000,12.853740966796876,0.13312473893165588,-8.924474716186523,4.070893287658691
1764544914107500800,12.870500732421876,0.12286199629306793,-8.91146183013916,4.099617958068848
1764544914124278300,12.8872783203125,0.10908682644367218,-8.894309997558594,4.137084007263184
1764544914141029600,12.904029541015625,0.10011368989944458,-8.871783256530762,4.185398578643799
1764544914157777700,12.920777587890624,0.09886530786752701,-8.843928337097168,4.243968486785889
1764544914174560800,12.937560791015626,0.1039823591709137,-8.815075874328613,4.303456783294678
1764544914191290400,12.954290283203125,0.11344578117132187,-8.791022300720215,4.352144718170166
1764544914208067600,12.971067626953126,0.1261991411447525,-8.773921012878418,4.386173248291016
1764544914224843800,12.98784375,0.13878703117370605,-8.76475715637207,4.404078483581543
1764544914241597400,13.004597412109375,0.14856065809726715,-8.762283325195312,4.408676624298096
1764544914258353200,13.021353271484376,0.15056931972503662,-8.765435218811035,4.402338027954102
1764544914275127000,13.038126953125,0.14715760946273804,-8.772106170654297,4.3891496658325195
1764544914291881700,13.0548818359375,0.14147792756557465,-8.778672218322754,4.3761887550354
1764544914308632600,13.071632568359375,0.13761202991008759,-8.78292179107666,4.367774486541748
1764544914325414100,13.0884140625,0.1429547816514969,-8.78450870513916,4.3644118309021
1764544914342133200,13.10513330078125,0.15969887375831604,-8.784965515136719,4.362913131713867
1764544914358904800,13.12190478515625,0.1843482404947281,-8.78530502319336,4.361255168914795
1764544914375657500,13.138657470703125,0.2145065814256668,-8.788936614990234,4.3525495529174805
1764544914392409000,13.1554091796875,0.24788525700569153,-8.7969388961792,4.334572792053223
1764544914409195500,13.172195556640625,0.278931200504303,-8.80978012084961,4.306515693664551
1764544914425977600,13.1889775390625,0.30301806330680847,-8.829289436340332,4.264734745025635
1764544914442744000,13.205744140625,0.3182128071784973,-8.85380744934082,4.212474822998047
1764544914459492600,13.22249267578125,0.32081496715545654,-8.88066577911377,4.155355453491211
1764544914476262400,13.239262451171875,0.31058597564697266,-8.91019344329834,4.092446327209473
1764544914493016300,13.256016357421874,0.29489877820014954,-8.940059661865234,4.027965068817139
1764544914509770800,13.272770751953125,0.28621405363082886,-8.966961860656738,3.968346118927002
1764544914526545000,13.289544921875,0.29429709911346436,-8.986282348632812,3.92380428314209
1764544914543299300,13.30629931640625,0.3201274573802948,-8.997152328491211,3.8967790603637695
1764544914560051500,13.323051513671874,0.3640725016593933,-8.988324165344238,3.913257360458374
1764544914576831500,13.33983154296875,0.4142319858074188,-8.971992492675781,3.9456167221069336
1764544914593583600,13.35658349609375,0.49624955654144287,-8.915022850036621,4.06352424621582
1764544914610335700,13.373335693359374,0.6919212341308594,-8.761168479919434,4.358816623687744
1764544914627114500,13.390114501953125,0.7718004584312439,-8.729501724243164,4.408657073974609
1764544914643867100,13.4068671875,0.8148139119148254,-8.73434829711914,4.3912835121154785
1764544914660620500,13.42362060546875,0.8504641056060791,-8.74962329864502,4.353952884674072
1764544914677397200,13.440397216796875,0.8807371854782104,-8.771590232849121,4.303443908691406
1764544914694128600,13.457128662109374,0.9088125824928284,-8.79821491241455,4.242824554443359
1764544914710911500,13.473911376953126,0.9365993142127991,-8.825511932373047,4.179620742797852
1764544914727647700,13.490647705078125,0.963914155960083,-8.850143432617188,4.120914936065674
1764544914744434200,13.50743408203125,0.996006429195404,-8.869356155395508,4.071683883666992
1764544914761190000,13.52418994140625,1.038946509361267,-8.882451057434082,4.032216548919678
1764544914777962800,13.540962646484376,1.093624472618103,-8.888738632202148,4.003799915313721
1764544914794692900,13.55769287109375,1.152730107307434,-8.891361236572266,3.9813337326049805
1764544914811470600,13.574470703125,1.2051916122436523,-8.893879890441895,3.9601173400878906
1764544914828249300,13.591249267578124,1.2425237894058228,-8.899619102478027,3.93560791015625
1764544914845001500,13.60800146484375,1.2618579864501953,-8.909822463989258,3.906261444091797
1764544914861755000,13.6247548828125,1.2653191089630127,-8.923964500427246,3.872720241546631
1764544914878531800,13.64153173828125,1.255936622619629,-8.940936088562012,3.836456298828125
1764544914895285500,13.658285400390625,1.2366524934768677,-8.960114479064941,3.7977843284606934
1764544914912039700,13.675039794921876,1.2141878604888916,-8.980945587158203,3.755592107772827
1764544914928815000,13.691815185546876,1.1937514543533325,-9.002395629882812,3.710517168045044
1764544914945540000,13.7085400390625,1.1761733293533325,-9.025375366210938,3.659966468811035
1764544914962327600,13.72532763671875,1.157775640487671,-9.045852661132812,3.6150014400482178
1764544914979087600,13.742087646484375,1.1373075246810913,-9.074691772460938,3.548604965209961
1764544914995853000,13.75885302734375,1.1025880575180054,-9.088970184326172,3.522933006286621
1764544915012607500,13.775607421875,1.0566052198410034,-9.09439468383789,3.5230207443237305
1764544915029382100,13.792382080078125,1.0014866590499878,-9.093826293945312,3.5405476093292236
1764544915046130200,13.809130126953125,0.9374558329582214,-9.094766616821289,3.5556302070617676
1764544915062904000,13.825904052734375,0.8474742770195007,-9.173192024230957,3.3720080852508545
1764544915079658800,13.84265869140625,0.7680500149726868,-9.187596321105957,3.351759433746338
1764544915096420600,13.859420654296875,0.6954260468482971,-9.171680450439453,3.4106862545013428
1764544915113181200,13.87618115234375,0.625282347202301,-9.15727710723877,3.4625742435455322
1764544915129937200,13.892937255859374,0.5579976439476013,-9.147318840026855,3.5001919269561768
1764544915146710300,13.909710205078126,0.49703675508499146,-9.140280723571777,3.5276551246643066
1764544915163456000,13.9264560546875,0.4503704011440277,-9.133031845092773,3.552609443664551
1764544915180235500,13.943235595703126,0.4225929081439972,-9.12499713897705,3.5765857696533203
1764544915196959700,13.959959716796876,0.4088357388973236,-9.118596076965332,3.594463348388672
1764544915213694200,13.976694091796874,0.39975690841674805,-9.114116668701172,3.606825590133667
1764544915230500600,13.99350048828125,0.38807371258735657,-9.112006187438965,3.6134259700775146
1764544915247271200,14.010271240234376,0.3664381504058838,-9.112266540527344,3.615028142929077
1764544915264031700,14.02703173828125,0.3279099762439728,-9.113414764404297,3.6158361434936523
1764544915280794400,14.04379443359375,0.27303895354270935,-9.113936424255371,3.6190807819366455
1764544915297549800,14.0605498046875,0.20834492146968842,-9.113042831420898,3.625622272491455
1764544915314322400,14.077322509765626,0.14726242423057556,-9.111113548278809,3.6334638595581055
1764544915331078000,14.094077880859375,0.10095715522766113,-9.10909366607666,3.6400997638702393
1764544915347838500,14.11083837890625,0.07174183428287506,-9.108122825622559,3.643220901489258
1764544915364601300,14.127601318359375,0.05673187971115112,-9.108593940734863,3.6423094272613525
1764544915381360400,14.1443603515625,0.05249703675508499,-9.109404563903809,3.6403448581695557
1764544915398122800,14.161122802734376,0.05549592524766922,-9.109539985656738,3.6399612426757812
1764544915414875400,14.17787548828125,0.06275729089975357,-9.107797622680664,3.6442019939422607
1764544915431654100,14.194654052734375,0.07019553333520889,-9.105053901672363,3.650914430618286
1764544915448380400,14.21138037109375,0.07567481696605682,-9.1017484664917,3.6590371131896973
1764544915465159700,14.22815966796875,0.08054569363594055,-9.096946716308594,3.6708567142486572
1764544915481901300,14.2449013671875,0.08530576527118683,-9.091222763061523,3.6849029064178467
1764544915498690600,14.261690673828125,0.0886351689696312,-9.085789680480957,3.6982028484344482
1764544915515451100,14.278451171875,0.09171051532030106,-9.080709457397461,3.710582971572876
1764544915532213200,14.295213134765625,0.09967456758022308,-9.076193809509277,3.7214090824127197
1764544915548974600,14.311974609375,0.11415782570838928,-9.072747230529785,3.7293920516967773
1764544915565735000,14.32873486328125,0.13080616295337677,-9.070968627929688,3.7331655025482178
1764544915582495500,14.34549560546875,0.1481161117553711,-9.070332527160645,3.7340657711029053
1764544915599263700,14.362263671875,0.1643165647983551,-9.069815635681152,3.7346420288085938
1764544915616001300,14.379001220703126,0.16734600067138672,-9.062041282653809,3.7533326148986816
1764544915632791800,14.395791748046875,-0.14319568872451782,-8.986618995666504,3.9314489364624023
1764544915649533400,14.412533447265625,-0.3638080656528473,-8.935600280761719,4.032223224639893
1764544915666299400,14.42929931640625,-0.4689030051231384,-8.915474891662598,4.06577730178833
1764544915683074600,14.446074462890625,-0.5627714395523071,-8.913516998291016,4.058155059814453
1764544915699808000,14.46280810546875,-0.5582293272018433,-8.9214448928833,4.041325569152832
1764544915716569300,14.4795693359375,-0.5370301008224487,-8.933670997619629,4.017119407653809
1764544915733350100,14.49635009765625,-0.5049812197685242,-8.948979377746582,3.987088441848755
1764544915750108700,14.513108642578125,-0.46343526244163513,-8.96635913848877,3.9529409408569336
1764544915766869000,14.529868896484375,-0.4113156795501709,-8.984030723571777,3.918433904647827
1764544915783632600,14.546632568359374,-0.350571870803833,-9.003218650817871,3.880108594894409
1764544915800383500,14.563383544921875,-0.28655949234962463,-9.024223327636719,3.8363265991210938
1764544915817162800,14.580162841796875,-0.22972016036510468,-9.042559623718262,3.7967729568481445
1764544915833890600,14.596890625,-0.19384120404720306,-9.051732063293457,3.7768642902374268
1764544915850675700,14.61367578125,-0.18932174146175385,-9.050236701965332,3.7806737422943115
1764544915867438000,14.63043798828125,-0.21537050604820251,-9.040390968322754,3.8027729988098145
1764544915884198700,14.64719873046875,-0.24242351949214935,-9.028780937194824,3.8286380767822266
1764544915900960000,14.6639599609375,-0.2818080186843872,-9.005064964294434,3.8814330101013184
1764544915917721600,14.6807216796875,-0.300290048122406,-8.975988388061523,3.9468443393707275
1764544915934482200,14.697482177734376,-0.2905013859272003,-8.94432258605957,4.018806457519531
1764544915951234600,14.714234619140624,-0.25480762124061584,-8.913098335266113,4.089972496032715
1764544915967993300,14.730993408203124,-0.2009933739900589,-8.884515762329102,4.15464973449707
1764544915984747500,14.74774755859375,-0.13783642649650574,-8.860913276672363,4.207297325134277
1764544916001527800,14.76452783203125,-0.07342012971639633,-8.844282150268555,4.243748188018799
1764544916018284800,14.781284912109374,0.1853785216808319,-8.885937690734863,4.152331352233887
1764544916035054300,14.798054443359375,0.2274121195077896,-8.890325546264648,4.140835285186768
1764544916051801000,14.814801025390626,0.22525449097156525,-8.900224685668945,4.119635105133057
1764544916068579600,14.83157958984375,0.1877954751253128,-8.911383628845215,4.097324848175049
1764544916085336800,14.8483369140625,0.13004574179649353,-8.919332504272461,4.082245349884033
1764544916102095400,14.865095458984374,0.07765497267246246,-8.921244621276855,4.0793986320495605
1764544916118854100,14.881854248046874,0.055505719035863876,-8.916545867919922,4.0900187492370605
1764544916135620000,14.8986201171875,0.09289705753326416,-8.905051231384277,4.114309310913086
1764544916152378400,14.91537841796875,0.21225057542324066,-8.887636184692383,4.147408962249756
1764544916169138400,14.932138427734374,0.2554457187652588,-8.869681358337402,4.183256149291992
1764544916185902600,14.948902587890625,0.29114046692848206,-8.8518648147583,4.218512058258057
1764544916202637600,14.965637451171874,0.31297340989112854,-8.833763122558594,4.254735469818115
1764544916219392300,14.982392333984375,0.32229211926460266,-8.815128326416016,4.2925238609313965
1764544916236164600,14.99916455078125,0.32629263401031494,-8.802275657653809,4.318520545959473
1764544916252946000,15.01594580078125,0.33572885394096375,-8.796246528625488,4.330060958862305
1764544916269696500,15.032696533203126,0.35666540265083313,-8.795916557312012,4.329061031341553
1764544916286479400,15.049479248046875,0.3880602717399597,-8.800078392028809,4.3178863525390625
1764544916303228200,15.066228271484375,0.4160495698451996,-8.80721378326416,4.300701141357422
1764544916319977000,15.08297705078125,0.4411040246486664,-8.814777374267578,4.282669544219971
1764544916336763400,15.099763427734375,0.4656485915184021,-8.820937156677246,4.267360210418701
1764544916353507300,15.11650732421875,0.48950904607772827,-8.826376914978027,4.253419399261475
1764544916370252800,15.133252685546875,0.5132355690002441,-8.833409309387207,4.235988616943359
1764544916387046000,15.1500458984375,0.5365497469902039,-8.842950820922852,4.213129043579102
1764544916403798000,15.166798095703125,0.5568674802780151,-8.855079650878906,4.1849212646484375
1764544916420517400,15.183517333984375,0.570380687713623,-8.870386123657227,4.150546073913574
1764544916437329200,15.2003291015625,0.5791155695915222,-8.889228820800781,4.108815670013428
1764544916454055400,15.217055419921875,0.5880053639411926,-8.910934448242188,4.060248374938965
1764544916470798600,15.233798583984376,0.6000654101371765,-8.93432903289795,4.006718635559082
1764544916487578000,15.250578125,0.6125999689102173,-8.958612442016602,3.950202226638794
1764544916504365000,15.267364990234375,0.6198371648788452,-8.983633995056152,3.8918166160583496
1764544916521122000,15.2841220703125,0.6201675534248352,-9.01111125946045,3.8277158737182617
1764544916537892900,15.300892822265626,0.6188440322875977,-9.036959648132324,3.76650071144104
1764544916554642700,15.317642578125,0.6190966367721558,-9.057381629943848,3.717078447341919
1764544916571393000,15.33439306640625,0.6286100745201111,-9.063363075256348,3.700864553451538
1764544916588179000,15.351178955078124,0.7003955841064453,-8.966353416442871,3.917917251586914
1764544916604932600,15.3679326171875,0.798588752746582,-8.903870582580566,4.03973388671875
1764544916621663000,15.3846630859375,0.878766655921936,-8.889579772949219,4.054531097412109
1764544916638462000,15.4014619140625,0.9416909217834473,-8.899169921875,4.019219398498535
1764544916655216400,15.41821630859375,1.0001271963119507,-8.916440963745117,3.966477870941162
1764544916671950300,15.434950439453125,1.0575321912765503,-8.936522483825684,3.905930519104004
1764544916688741400,15.451741455078125,1.110219955444336,-8.957663536071777,3.8423712253570557
1764544916705500700,15.468500732421875,1.1554704904556274,-8.977483749389648,3.782301664352417
1764544916722235400,15.4852353515625,1.1894694566726685,-8.993311882019043,3.733846664428711
1764544916738998300,15.501998291015624,1.2129533290863037,-9.00395393371582,3.7004969120025635
1764544916755784200,15.5187841796875,1.2323890924453735,-9.00887680053711,3.682046413421631
1764544916772521000,15.53552099609375,1.255969524383545,-9.007644653320312,3.6770877838134766
1764544916789305000,15.55230517578125,1.2885098457336426,-9.000143051147461,3.684189796447754
1764544916806069500,15.569069580078125,1.3286631107330322,-8.989755630493164,3.6952779293060303
1764544916822790100,15.5857900390625,1.3707897663116455,-8.980256080627441,3.7029759883880615
1764544916839598600,15.6025986328125,1.4097874164581299,-8.973430633544922,3.704880714416504
1764544916856355000,15.61935498046875,1.445231556892395,-8.970205307006836,3.699032783508301
1764544916873076500,15.636076416015625,1.4776201248168945,-8.970598220825195,3.6852591037750244
1764544916889879000,15.652879150390625,1.5054969787597656,-8.975397109985352,3.6622183322906494
1764544916906642200,15.66964208984375,1.5245574712753296,-8.985173225402832,3.630220413208008
1764544916923362300,15.6863623046875,1.532812237739563,-8.998568534851074,3.593379020690918
1764544916940165000,15.7031650390625,1.5334638357162476,-9.015299797058105,3.5509116649627686
1764544916956923000,15.7199228515625,1.53822922706604,-9.03789234161377,3.4909138679504395
1764544916973654800,15.73665478515625,1.5333657264709473,-9.059242248535156,3.4372997283935547
1764544916990444000,15.753444091796876,1.5100656747817993,-9.073885917663574,3.408872127532959
1764544917007203300,15.770203369140624,1.4965440034866333,-9.101945877075195,3.339319944381714
1764544917023988700,15.78698876953125,1.5038080215454102,-9.209725379943848,3.025827407836914
1764544917040727000,15.80372705078125,1.4454340934753418,-9.245762825012207,2.9432482719421387
1764544917057486800,15.82048681640625,1.3662364482879639,-9.255120277404785,2.951651096343994
1764544917074222300,15.837222412109375,1.2637602090835571,-9.259804725646973,2.9824559688568115
1764544917091003600,15.854003662109376,1.124637246131897,-9.274322509765625,2.9930310249328613
1764544917107777500,15.870777587890625,0.9465693235397339,-9.29636287689209,2.9862637519836426
1764544917124506400,15.88750634765625,0.8098366856575012,-9.282550811767578,3.0683093070983887
1764544917141292000,15.9042919921875,0.6783357858657837,-9.26455020904541,3.1534249782562256
1764544917158055700,15.9210556640625,0.5615199208259583,-9.245115280151367,3.232435703277588
1764544917174826200,15.937826171875,0.4713341295719147,-9.230112075805664,3.2892215251922607
1764544917191577000,15.9545771484375,0.41737601161003113,-9.22110652923584,3.3216116428375244
1764544917208345300,15.971345458984375,0.3940666913986206,-9.215310096740723,3.3404908180236816
1764544917225108000,15.98810791015625,0.38662996888160706,-9.212331771850586,3.349569082260132
1764544917241875200,16.004875244140624,0.37196382880210876,-9.212738990783691,3.3501052856445312
1764544917258628000,16.021628173828127,0.33824798464775085,-9.214858055114746,3.3478505611419678
1764544917275362000,16.038362060546874,0.2802862226963043,-9.21545124053955,3.3515727519989014
1764544917292144400,16.055144287109375,0.20488424599170685,-9.214700698852539,3.3590803146362305
1764544917308906000,16.071906005859375,0.12255311012268066,-9.21260929107666,3.368816375732422
1764544917325663200,16.088663330078123,0.043015044182538986,-9.210945129394531,3.3753156661987305
1764544917342428000,16.105427978515625,-0.024145493283867836,-9.210346221923828,3.3771352767944336
1764544917359195000,16.12219482421875,-0.07390515506267548,-9.211055755615234,3.3744797706604004
1764544917375950000,16.1389501953125,-0.10502360016107559,-9.212422370910645,3.3699231147766113
1764544917392714000,16.1557138671875,-0.11724779009819031,-9.212324142456055,3.369786262512207
1764544917409472500,16.172472412109375,-0.11014210432767868,-9.208934783935547,3.379274845123291
1764544917426233300,16.1892333984375,-0.08914650976657867,-9.20327091217041,3.395289182662964
1764544917442989600,16.205989501953123,-0.06072055920958519,-9.195571899414062,3.4167063236236572
1764544917459763500,16.222763427734375,-0.031168730929493904,-9.185868263244629,3.443103551864624
1764544917476507400,16.23950732421875,-0.008374236524105072,-9.173163414001465,3.4769394397735596
1764544917493260500,16.256260498046874,0.0003600423224270344,-9.158865928649902,3.514436960220337
1764544917510043400,16.27304345703125,-0.0007667161989957094,-9.145848274230957,3.5481786727905273
1764544917526775800,16.28977587890625,-0.0029968442395329475,-9.135055541992188,3.5758750438690186
1764544917543534000,16.3065341796875,0.003609193954616785,-9.126559257507324,3.5975022315979004
1764544917560299800,16.3232998046875,0.02948020026087761,-9.119941711425781,3.6141254901885986
1764544917577084700,16.340084716796873,0.07699117064476013,-9.115912437438965,3.6235811710357666
1764544917593801700,16.3568017578125,0.13522928953170776,-9.115346908569336,3.6232967376708984
1764544917610574600,16.37357470703125,0.18844422698020935,-9.118131637573242,3.6139016151428223
1764544917627327200,16.3903271484375,0.22783398628234863,-9.12350845336914,3.598031997680664
1764544917644141600,16.4071416015625,0.2538750171661377,-9.130992889404297,3.577240467071533
1764544917660892700,16.423892578125,0.2761146128177643,-9.141022682189941,3.549870491027832
1764544917677617700,16.44061767578125,0.29450249671936035,-9.15274429321289,3.518049955368042
1764544917694422300,16.45742236328125,0.2997453808784485,-9.165383338928223,3.484539270401001
1764544917711177000,16.474177001953127,0.2926347255706787,-9.17657470703125,3.455570697784424
1764544917727883300,16.49088330078125,0.27436965703964233,-9.188301086425781,3.4257805347442627
1764544917744677600,16.507677734375,0.25483351945877075,-9.20358657836914,3.38602614402771
1764544917761466400,16.52446630859375,0.24529217183589935,-9.22227954864502,3.335491180419922
1764544917778186200,16.541186279296873,0.24693100154399872,-9.239636421203613,3.286985158920288
1764544917794992000,16.5579921875,0.2480470836162567,-9.252957344055176,3.249208450317383
1764544917811744500,16.57474462890625,0.2369924783706665,-9.261399269104004,3.2259042263031006
1764544917828474400,16.591474365234376,0.20788387954235077,-9.264731407165527,3.2183303833007812
1764544917845269500,16.60826953125,0.16940656304359436,-9.261853218078613,3.2288525104522705
1764544917862034400,16.625034423828126,0.14158770442008972,-9.252126693725586,3.2579503059387207
1764544917878756600,16.641756591796874,0.13801270723342896,-9.23576545715332,3.30419921875
1764544917895552300,16.65855224609375,0.15695959329605103,-9.213738441467285,3.364300012588501
1764544917912318500,16.675318359375,0.18860208988189697,-9.18863582611084,3.4306752681732178
1764544917929040600,16.69204052734375,0.22655008733272552,-9.16297721862793,3.496378183364868
1764544917945838600,16.708838623046876,0.2666366994380951,-9.137578010559082,3.5594513416290283
1764544917962598700,16.7255986328125,0.3025934100151062,-9.113447189331055,3.617961883544922
1764544917979328800,16.742328857421874,0.6966913938522339,-9.14174747467041,3.48987078666687
1764544917996101000,16.75910107421875,0.7125930190086365,-9.129016876220703,3.5198535919189453
1764544918012880100,16.775880126953126,0.6928959488868713,-9.121989250183105,3.5419399738311768
1764544918029612000,16.792612060546876,0.6583288311958313,-9.118086814880371,3.558542013168335
1764544918046408700,16.80940869140625,0.6211690306663513,-9.111773490905762,3.5813169479370117
1764544918063163100,16.8261630859375,0.5942095518112183,-9.100076675415039,3.6154675483703613
1764544918079946500,16.842946533203126,0.5820035338401794,-9.084786415100098,3.6556875705718994
1764544918096680000,16.859679931640624,0.5871990323066711,-9.068007469177246,3.6962881088256836
1764544918113454000,16.8764541015625,0.6066319942474365,-9.049277305603027,3.7388105392456055
1764544918130209000,16.893208984375,0.6350418329238892,-9.027702331542969,3.7859485149383545
1764544918146964700,16.90996484375,0.6613268256187439,-9.003982543945312,3.837585210800171
1764544918163736600,16.926736572265625,0.6784532070159912,-8.979349136352539,3.8919265270233154
1764544918180485000,16.943485107421875,0.6873149275779724,-8.960472106933594,3.933657169342041
1764544918197242400,16.960242431640626,0.698456346988678,-8.951375007629395,3.9523627758026123
1764544918214001400,16.97700146484375,0.7170678973197937,-8.95267391204834,3.9460806846618652
1764544918230751500,16.99375146484375,0.7389377951622009,-8.959492683410645,3.9265239238739014
1764544918247558700,17.01055859375,0.7582751512527466,-8.966682434082031,3.906372308731079
1764544918264298800,17.027298828125,0.7776610255241394,-8.988094329833984,3.852989912033081
1764544918281038600,17.04403857421875,0.7981470227241516,-9.010881423950195,3.7951393127441406
1764544918297821400,17.060821533203125,0.8215413093566895,-9.032062530517578,3.739388942718506
1764544918314583300,17.077583251953126,0.8449922800064087,-9.053109169006348,3.682837963104248
1764544918331330800,17.094330810546875,0.8652421832084656,-9.069692611694336,3.637052536010742
1764544918348097500,17.11109765625,0.880307137966156,-9.081985473632812,3.60260009765625
1764544918364874800,17.127874755859374,0.8967912793159485,-9.093606948852539,3.5690619945526123
1764544918381608200,17.144608154296876,0.9104213118553162,-9.106135368347168,3.5334889888763428
1764544918398385200,17.16138525390625,0.9226732850074768,-9.120749473571777,3.492382764816284
1764544918415155000,17.178155029296875,0.9367579221725464,-9.137994766235352,3.443206548690796
1764544918431886000,17.194885986328124,0.952065646648407,-9.158256530761719,3.3846774101257324
1764544918448667400,17.21166748046875,0.9639400243759155,-9.17953109741211,3.323122978210449
1764544918465440800,17.228440673828125,0.9304146766662598,-9.180938720703125,3.3287904262542725
1764544918482170600,17.245170654296874,0.9838138818740845,-9.197978973388672,3.2657926082611084
1764544918498956800,17.261956787109376,0.9861847162246704,-9.100385665893555,3.5279629230499268
1764544918515719000,17.278718994140625,0.7864037752151489,-9.078880310058594,3.632028341293335
1764544918532459500,17.29545947265625,0.7563902735710144,-9.086078643798828,3.620378017425537
1764544918549241600,17.31224169921875,0.7715636491775513,-9.08088207244873,3.630206823348999
1764544918566002000,17.329001953125,0.8151888847351074,-9.076435089111328,3.6317903995513916
1764544918582790400,17.345790283203126,0.8641698360443115,-9.074732780456543,3.6247124671936035
1764544918599518700,17.362518798828123,0.9100313186645508,-9.07317066192627,3.6173934936523438
1764544918616292900,17.37929296875,0.96932452917099,-9.063183784484863,3.627013683319092
1764544918633055200,17.39605517578125,1.0052499771118164,-9.065576553344727,3.6112167835235596
1764544918649802800,17.412802734375,1.0379095077514648,-9.067018508911133,3.598339796066284
1764544918666576400,17.429576416015625,1.0650337934494019,-9.06696605682373,3.59053373336792
1764544918683330600,17.44633056640625,1.0732203722000122,-9.070215225219727,3.5798752307891846
1764544918700092400,17.463092529296876,1.0590167045593262,-9.077520370483398,3.565560817718506
1764544918716854500,17.4798544921875,1.0372750759124756,-9.083123207092285,3.5576717853546143
1764544918733614300,17.4966142578125,1.0210323333740234,-9.078850746154785,3.573244094848633
1764544918750370300,17.513370361328125,1.0024653673171997,-9.068644523620605,3.6042850017547607
1764544918767144000,17.53014404296875,0.9879295229911804,-9.062483787536621,3.6237382888793945
1764544918783873500,17.54687353515625,0.9843882918357849,-9.058374404907227,3.6349594593048096
1764544918800660000,17.563659912109376,1.0532947778701782,-9.095775604248047,3.520447254180908
1764544918817408000,17.580407958984374,1.0429105758666992,-9.102171897888184,3.506986618041992
1764544918834157300,17.5971572265625,0.9975072741508484,-9.110361099243164,3.4989163875579834
1764544918850938600,17.613938720703125,0.9255481362342834,-9.112545013427734,3.512974977493286
1764544918867710700,17.630710693359376,0.8275793194770813,-9.110578536987305,3.5423989295959473
1764544918884421600,17.647421630859377,0.7112147808074951,-9.10206413269043,3.589250326156616
1764544918901228000,17.66422802734375,0.5675265192985535,-9.098737716674805,3.6231226921081543
1764544918917989400,17.6809892578125,0.39589276909828186,-9.10405445098877,3.632575273513794
1764544918934741500,17.697741455078123,0.2696366012096405,-9.08057975769043,3.7022297382354736
1764544918951512600,17.7145126953125,0.17438912391662598,-9.053797721862793,3.7728562355041504
1764544918968273200,17.731273193359375,0.10736087709665298,-9.03535270690918,3.8192903995513916
1764544918985012200,17.74801220703125,0.0733400210738182,-9.025589942932129,3.8431055545806885
1764544919001795800,17.7647958984375,0.07924585789442062,-9.014937400817871,3.8679146766662598
1764544919018557400,17.781557373046876,0.12454716116189957,-9.005810737609863,3.887925624847412
1764544919035317800,17.79831787109375,0.1873592734336853,-9.001679420471191,3.8949673175811768
1764544919052080400,17.815080322265626,0.2289382368326187,-9.002615928649902,3.8905818462371826
1764544919068815400,17.8318154296875,0.21722465753555298,-9.004827499389648,3.886132001876831
1764544919085577200,17.8485771484375,0.14861518144607544,-9.006301879882812,3.8859424591064453
1764544919102363600,17.86536376953125,0.03979659080505371,-9.00692081451416,3.887145757675171
1764544919119125200,17.882125244140624,-0.07267913967370987,-9.007038116455078,3.8864011764526367
1764544919135860700,17.89886083984375,-0.1617480218410492,-9.008810997009277,3.8795993328094482
1764544919152647700,17.915647705078126,-0.2190510332584381,-9.013998031616211,3.8647079467773438
1764544919169409300,17.9324091796875,-0.24865007400512695,-9.020256042480469,3.848283052444458
1764544919186144500,17.94914453125,-0.25969576835632324,-9.023526191711426,3.8398802280426025
1764544919202931700,17.965931640625,-0.2544255256652832,-9.024201393127441,3.8386452198028564
1764544919219693000,17.982693115234376,-0.23346105217933655,-9.024023056030273,3.840397357940674
1764544919236428300,17.99942822265625,-0.20320157706737518,-9.023484230041504,3.843376874923706
1764544919253216000,18.016216064453126,-0.16732071340084076,-9.021468162536621,3.849834680557251
1764544919269970400,18.032970458984376,-0.1315588504076004,-9.017244338989258,3.8611032962799072
1764544919286720000,18.049719970703126,-0.10770995914936066,-9.0114107131958,3.8754353523254395
1764544919303499500,18.06649951171875,-0.1025860384106636,-9.00326919555664,3.8944480419158936
1764544919320269800,18.083269775390626,-0.10837201029062271,-8.994575500488281,3.9143309593200684
1764544919336997000,18.0999970703125,-0.11437007784843445,-8.988794326782227,3.927419900894165
1764544919353770500,18.1167705078125,-0.11086862534284592,-8.986127853393555,3.9336142539978027
1764544919370544600,18.133544677734374,-0.08970286697149277,-8.98300552368164,3.941277265548706
1764544919387315500,18.1503154296875,-0.05017642304301262,-8.98410701751709,3.9394707679748535
1764544919404072000,18.167072021484376,-0.005557924974709749,-8.9881010055542,3.9306671619415283
1764544919420829200,18.1838291015625,-0.04664982110261917,-8.993330001831055,3.9184157848358154
1764544919437569300,18.2005693359375,-0.03534071892499924,-8.997193336486816,3.9096505641937256
1764544919454352000,18.217351806640625,-0.04332275316119194,-8.998866081237793,3.9057207107543945
1764544919471112200,18.2341123046875,-0.05243710055947304,-9.001855850219727,3.8987112045288086
1764544919487866000,18.2508662109375,-0.055861230939626694,-9.007293701171875,3.886086940765381
1764544919504635100,18.26763525390625,-0.06046342849731445,-9.013718605041504,3.871093273162842
1764544919521397000,18.28439697265625,-0.06916467100381851,-9.021369934082031,3.853078842163086
1764544919538148400,18.3011484375,-0.07941747456789017,-9.03160285949707,3.8288345336914062
1764544919554919700,18.317919677734373,-0.0818466991186142,-9.047053337097168,3.7921268939971924
1764544919571674400,18.33467431640625,-0.07209295779466629,-9.068415641784668,3.740957021713257
1764544919588441300,18.35144140625,-0.05528571829199791,-9.089509010314941,3.689702033996582
1764544919605203200,18.368203125,-0.03799038380384445,-9.107063293457031,3.64638090133667
1764544919621964500,18.384964599609376,-0.03752026706933975,-9.116782188415527,3.6220130920410156
1764544919638718700,18.40171875,-0.055246397852897644,-9.116996765136719,3.6212456226348877
1764544919655493600,18.41849365234375,-0.08199404925107956,-9.107490539550781,3.6445860862731934
1764544919672248000,18.435248046875,-0.10080307722091675,-9.089607238769531,3.688495397567749
1764544919689009200,18.452009033203126,-0.09934727102518082,-9.065688133239746,3.7469379901885986
1764544919705770500,18.4687705078125,-0.07651856541633606,-9.036060333251953,3.818364143371582
1764544919722531600,18.485531494140623,-0.03981062397360802,-9.00645923614502,3.888213872909546
1764544919739293700,18.502293701171876,0.0040616225451231,-8.979076385498047,3.9512410163879395
1764544919756055000,18.519054931640625,0.04383906349539757,-8.95197868347168,4.012016296386719
1764544919772813600,18.5358134765625,0.06811509281396866,-8.927567481994629,4.065711975097656
1764544919789541600,18.552541748046874,0.39793214201927185,-8.912317276000977,4.080236911773682
1764544919806338800,18.5693388671875,0.460559606552124,-8.89413833618164,4.113189697265625
1764544919823083000,18.5860830078125,0.47936105728149414,-8.886321067810059,4.1279096603393555
1764544919839839500,18.602839599609375,0.501278281211853,-8.886079788208008,4.125826835632324
1764544919856624000,18.6196240234375,0.5247997641563416,-8.890409469604492,4.113552570343018
1764544919873384000,18.636384033203125,0.5509163737297058,-8.89561653137207,4.09885835647583
1764544919890134500,18.653134521484375,0.5841473937034607,-8.898402214050293,4.08819580078125
1764544919906903800,18.66990380859375,0.6204694509506226,-8.898632049560547,4.082339763641357
1764544919923668200,18.686668212890623,0.6587167978286743,-8.894876480102539,4.084532737731934
1764544919940392700,18.703392822265624,0.6978118419647217,-8.885497093200684,4.0984272956848145
1764544919957190400,18.7201904296875,0.7330948114395142,-8.870361328125,4.124968528747559
1764544919973926400,18.736926513671875,0.7671142220497131,-8.851125717163086,4.15995454788208
1764544919990672400,18.75367236328125,0.8014861941337585,-8.831536293029785,4.1949615478515625
1764544920007473700,18.7704736328125,0.8376016616821289,-8.816393852233887,4.2196855545043945
1764544920024236500,18.787236572265623,0.8760859966278076,-8.808053016662598,4.229278564453125
1764544920040951600,18.80395166015625,0.9164714217185974,-8.805766105651855,4.2254815101623535
1764544920057758500,18.820758544921876,0.9570177793502808,-8.809613227844238,4.208436489105225
1764544920074518800,18.837518798828125,0.9893296360969543,-8.81865406036377,4.181949615478516
1764544920091264000,18.854263916015626,1.0085266828536987,-8.829257011413574,4.154900550842285
1764544920108041700,18.871041748046874,1.010866641998291,-8.837507247924805,4.136755466461182
1764544920124804000,18.88780419921875,0.9979957938194275,-8.841273307800293,4.131830215454102
1764544920141532000,18.904531982421876,0.9801000952720642,-8.841317176818848,4.136013984680176
1764544920158335000,18.9213349609375,0.9658092260360718,-8.839730262756348,4.142764091491699
1764544920175087600,18.938087646484377,0.9583283066749573,-8.837772369384766,4.148675441741943
1764544920191820300,18.9548203125,0.9570699334144592,-8.837674140930176,4.149173736572266
1764544920208610000,18.971610107421874,0.9595121741294861,-8.84209156036377,4.139188766479492
1764544920225372200,18.9883720703125,0.9615436792373657,-8.850557327270508,4.120579242706299
1764544920242097700,19.00509765625,0.9643130302429199,-8.861626625061035,4.096067428588867
1764544920258894800,19.021894775390624,0.9687155485153198,-8.876937866210938,4.061733722686768
1764544920275655200,19.0386552734375,0.9747361540794373,-8.894803047180176,4.021007537841797
1764544920292408600,19.05540869140625,0.9829471111297607,-8.913092613220215,3.9782803058624268
1764544920309178000,19.07217822265625,0.9922846555709839,-8.932123184204102,3.9330246448516846
1764544920325914000,19.0889140625,0.9991471171379089,-8.950352668762207,3.889600992202759
1764544920342656500,19.105656494140625,0.9990792870521545,-8.967803001403809,3.849216938018799
1764544920359456300,19.122456298828126,0.9872708320617676,-8.97131061553955,3.844085931777954
1764544920376229400,19.1392294921875,0.9744287133216858,-8.96192455291748,3.869176149368286
1764544920392983000,19.155983154296877,0.9918423295021057,-8.964251518249512,3.8593502044677734
1764544920409747200,19.172747314453126,1.0308172702789307,-8.968781471252441,3.838552474975586
1764544920426514200,19.18951416015625,1.080847978591919,-8.979206085205078,3.8002305030822754
1764544920443266600,19.2062666015625,1.1325536966323853,-8.99599552154541,3.745065689086914
1764544920460030500,19.223030517578124,1.1824456453323364,-9.017006874084473,3.678523063659668
1764544920476788200,19.239788330078124,1.225286841392517,-9.040032386779785,3.6072986125946045
1764544920493525200,19.256525146484375,1.2597702741622925,-9.06263256072998,3.5380454063415527
1764544920510314000,19.27331396484375,1.2843114137649536,-9.081392288208008,3.4806599617004395
1764544920527075300,19.290075439453126,1.2953627109527588,-9.094130516052246,3.4430980682373047
1764544920543804700,19.3068046875,1.2941099405288696,-9.0988187789917,3.431163787841797
1764544920560596700,19.3235966796875,1.291803240776062,-9.093979835510254,3.4448368549346924
1764544920577341000,19.3403408203125,1.2993658781051636,-9.081748008728027,3.474130868911743
1764544920594102300,19.357102294921877,1.3179543018341064,-9.065452575683594,3.509518623352051
1764544920610882000,19.373882080078126,1.34971284866333,-9.047218322753906,3.544320583343506
1764544920627643100,19.39064306640625,1.3949666023254395,-9.02892017364502,3.5733447074890137
1764544920644363800,19.40736376953125,1.4446219205856323,-9.014199256896973,3.5907416343688965
1764544920661172700,19.4241728515625,1.4877161979675293,-9.006353378295898,3.5928308963775635
1764544920677926700,19.4409267578125,1.5183014869689941,-9.006988525390625,3.5784082412719727
1764544920694653700,19.45765380859375,1.5380901098251343,-9.01512336730957,3.5493576526641846
1764544920711449900,19.474449951171874,1.550409197807312,-9.02891731262207,3.5087075233459473
1764544920728211200,19.491211181640626,1.5555050373077393,-9.047579765319824,3.458003520965576
1764544920744940000,19.50793994140625,1.5445888042449951,-9.126770973205566,3.248443365097046
1764544920761709000,19.524708984375,1.5227186679840088,-9.263164520263672,2.8480238914489746
1764544920778469400,19.541469482421874,1.4833041429519653,-9.276113510131836,2.8265960216522217
1764544920795228200,19.558228271484374,1.4271578788757324,-9.278461456298828,2.847720146179199
1764544920812006400,19.57500634765625,1.3568081855773926,-9.27584457397461,2.890307664871216
1764544920828740600,19.59174072265625,1.286604404449463,-9.271172523498535,2.9370269775390625
1764544920845529000,19.608529052734376,1.2267204523086548,-9.265252113342285,2.981001615524292
1764544920862277000,19.625277099609374,1.1723673343658447,-9.259078025817871,3.021779775619507
1764544920879023000,19.642023193359375,1.1124011278152466,-9.25383472442627,3.0602645874023438
1764544920895802400,19.65880224609375,1.0466588735580444,-9.25016975402832,3.0943470001220703
1764544920912574700,19.67557470703125,0.9873070120811462,-9.247054100036621,3.1230342388153076
1764544920929335300,19.692335205078123,0.9455204010009766,-9.245492935180664,3.140537977218628
1764544920946082800,19.709082763671876,0.9288561344146729,-9.247014999389648,3.1410253047943115
1764544920962870500,19.72587060546875,0.9386860132217407,-9.252232551574707,3.122692108154297
1764544920979631600,19.742631591796876,0.9630600214004517,-9.2572660446167,3.100266933441162
1764544920996384500,19.759384521484375,0.9803584218025208,-9.264660835266113,3.0726358890533447
1764544921013147400,19.7761474609375,0.9723639488220215,-9.275272369384766,3.043016195297241
1764544921029916200,19.792916259765626,0.9439314007759094,-9.282330513000488,3.0304222106933594
1764544921055062800,19.818062744140626,0.8617318272590637,-9.292431831359863,3.0239450931549072
1764544921071810000,19.83481005859375,0.7920755743980408,-9.298117637634277,3.0255167484283447
1764544921088580000,19.851580078125,0.725187361240387,-9.301362991333008,3.0323057174682617
1764544921105341700,19.868341796875,0.6655576229095459,-9.303260803222656,3.0401453971862793
1764544921122106600,19.885106689453124,0.6162521243095398,-9.303858757019043,3.0486974716186523
1764544921138864000,19.901864013671876,0.5768024325370789,-9.301753044128418,3.062809944152832
1764544921155625700,19.918625732421877,0.5476529002189636,-9.295244216918945,3.087817907333374
1764544921172384000,19.935384033203125,0.5307701826095581,-9.286120414733887,3.118070363998413
1764544921189120000,19.9521201171875,0.526985764503479,-9.278385162353516,3.1416518688201904
1764544921205916000,19.968916015625,0.533827006816864,-9.272765159606934,3.1570522785186768
1764544921222634000,19.985634033203127,0.5450103878974915,-9.268709182739258,3.1670377254486084
1764544921239432700,20.0024326171875,0.5618634819984436,-9.264351844787598,3.176825523376465
1764544921256193000,20.019193115234376,0.5832360982894897,-9.259517669677734,3.187051296234131
1764544921272929300,20.03592919921875,0.6045773029327393,-9.254096031188965,3.198796272277832
1764544921289710000,20.0527099609375,0.6129262447357178,-9.248342514038086,3.2138123512268066
1764544921306484200,20.069484130859376,0.5971046686172485,-9.242469787597656,3.233623504638672
1764544921323204000,20.0862041015625,0.5833401679992676,-9.237113952636719,3.2513952255249023
1764544921340000300,20.103000244140624,0.5750144720077515,-9.233175277709961,3.2640395164489746
1764544921356761900,20.119761962890625,0.5800307989120483,-9.2312650680542,3.268554449081421
1764544921373498000,20.136498046875,0.6045408844947815,-9.231562614440918,3.2632687091827393
1764544921390284300,20.1532841796875,0.6432346701622009,-9.23378849029541,3.249542236328125
1764544921407046000,20.1700458984375,0.6403489112854004,-9.238800048828125,3.2358334064483643
1764544921423780600,20.186780517578125,0.5850690603256226,-9.24905014038086,3.2169647216796875
1764544921440543200,20.203543212890626,0.5856090784072876,-9.253971099853516,3.202686309814453
1764544921457329700,20.22032958984375,0.5902594923973083,-9.258642196655273,3.1882998943328857
1764544921474065000,20.23706494140625,0.5953275561332703,-9.26655387878418,3.16428279876709
1764544921490852400,20.253852294921874,0.5961067080497742,-9.276710510253906,3.134229898452759
1764544921507613700,20.27061376953125,0.5917357802391052,-9.287674903869629,3.102426290512085
1764544921524348400,20.287348388671877,0.585838258266449,-9.29953384399414,3.0678300857543945
1764544921541127200,20.304127197265625,0.5849135518074036,-9.312443733215332,3.0285956859588623
1764544921557907000,20.320906982421874,0.59601229429245,-9.326677322387695,2.982278347015381
1764544921574636300,20.33763623046875,0.617202877998352,-9.340296745300293,2.934971332550049
1764544921591420000,20.354419921875,0.6404525637626648,-9.353110313415527,2.8888182640075684
1764544921608181800,20.371181640625,0.6550499796867371,-9.365580558776855,2.8448073863983154
1764544921624917000,20.3879169921875,0.6558094024658203,-9.376997947692871,2.8067710399627686
1764544921641704700,20.40470458984375,0.64476078748703,-9.386628150939941,2.7769761085510254
1764544921658465500,20.421465576171876,0.6304671168327332,-9.392993927001953,2.758679151535034
1764544921675201000,20.438200927734375,0.6221949458122253,-9.396749496459961,2.747738838195801
1764544921691988200,20.45498828125,0.6267379522323608,-9.397634506225586,2.7436797618865967
1764544921708750000,20.47175,0.6457273364067078,-9.395703315734863,2.7458906173706055
1764544921725490700,20.48849072265625,0.6755304336547852,-9.391338348388672,2.7536416053771973
1764544921742272500,20.5052724609375,0.7108151912689209,-9.38458251953125,2.7677533626556396
1764544921759034000,20.5220341796875,0.7460551857948303,-9.375914573669434,2.7877860069274902
1764544921775770600,20.5387705078125,0.7823918461799622,-9.366405487060547,2.8097012042999268
1764544921792552400,20.555552490234376,0.8571209907531738,-9.360279083251953,2.808314323425293
1764544921809322000,20.572322021484375,0.9365099668502808,-9.352099418640137,2.8102128505706787
1764544921826053000,20.58905322265625,1.0394725799560547,-9.344968795776367,2.7977113723754883
1764544921842840600,20.605840576171875,1.116930365562439,-9.332402229309082,2.809784173965454
1764544921859601400,20.622601318359376,1.1700419187545776,-9.314733505249023,2.8465518951416016
1764544921876337000,20.6393369140625,1.2275221347808838,-9.293281555175781,2.892097234725952
1764544921893124900,20.656124755859373,1.3131842613220215,-9.264477729797363,2.9463741779327393
1764544921909880000,20.672880126953125,1.3790960311889648,-9.234543800354004,3.009552001953125
1764544921926627000,20.689626953125,1.3975446224212646,-9.213502883911133,3.0650243759155273
1764544921943383000,20.706383056640625,1.3984239101409912,-9.197093963623047,3.1135201454162598
1764544921960169700,20.723169677734376,1.390289306640625,-9.184525489807129,3.1539978981018066
1764544921976929000,20.739928955078124,1.380971074104309,-9.174762725830078,3.1863420009613037
1764544921993692400,20.7566923828125,1.3748595714569092,-9.166383743286133,3.2129852771759033
1764544922010421000,20.7734208984375,1.3738292455673218,-9.157889366149902,3.2375590801239014
1764544922027208700,20.790208740234377,1.3810648918151855,-9.147979736328125,3.262399911880493
1764544922043972600,20.80697265625,1.3982875347137451,-9.136492729187012,3.2871551513671875
1764544922060742400,20.823742431640625,1.4227893352508545,-9.123892784118652,3.3115475177764893
1764544922077485300,20.8404853515625,1.452142357826233,-9.10979175567627,3.3375282287597656
1764544922094261000,20.857260986328125,1.4846283197402954,-9.093094825744629,3.368624448776245
1764544922111022600,20.874022705078126,1.5167081356048584,-9.07692813873291,3.3978071212768555
1764544922127761700,20.89076171875,1.545316219329834,-9.06381607055664,3.419848680496216
1764544922144534800,20.90753466796875,1.5663526058197021,-9.055418014526367,3.4325010776519775
1764544922161315800,20.92431591796875,1.5732920169830322,-9.052645683288574,3.436633586883545
1764544922178041300,20.941041259765626,1.5588784217834473,-9.0540771484375,3.439434051513672
1764544922194803200,20.95780322265625,1.5317355394363403,-9.058706283569336,3.4394373893737793
1764544922211590100,20.974590087890626,1.505319356918335,-9.065120697021484,3.4342002868652344
1764544922228317000,20.99131689453125,1.491635799407959,-9.072477340698242,3.420713424682617
1764544922245112800,21.00811279296875,1.4912853240966797,-9.07967758178711,3.4017140865325928
1764544922261848300,21.024848388671874,1.4895801544189453,-9.08598518371582,3.3855748176574707
1764544922278609400,21.041609375,1.4804108142852783,-9.093585968017578,3.369152307510376
1764544922295396900,21.05839697265625,1.4693388938903809,-9.104028701782227,3.345717191696167
1764544922312158500,21.075158447265625,1.4507701396942139,-9.116862297058105,3.318770170211792
1764544922328893200,21.09189306640625,1.4264265298843384,-9.134109497070312,3.2816879749298096
1764544922345681200,21.10868115234375,1.4042613506317139,-9.152966499328613,3.2384226322174072
1764544922362442500,21.1254423828125,1.3827295303344727,-9.170583724975586,3.1975855827331543
1764544922379187000,21.14218701171875,1.3023182153701782,-9.172737121582031,3.22505259513855
1764544922395965200,21.158965087890625,1.2282534837722778,-9.173530578613281,3.2517473697662354
1764544922412726500,21.1757265625,1.1700257062911987,-9.168927192687988,3.2860190868377686
1764544922429450000,21.192449951171874,1.104775071144104,-9.127236366271973,3.421861171722412
1764544922446249200,21.209249267578127,1.0377498865127563,-9.030817985534668,3.688295364379883
1764544922463010300,21.22601025390625,1.0445148944854736,-9.017424583435059,3.7190287113189697
1764544922479772400,21.2427724609375,1.0603487491607666,-9.016756057739258,3.716167449951172
1764544922496533200,21.259533203125,1.0802167654037476,-9.016267776489258,3.7116239070892334
1764544922513291800,21.276291748046877,1.10225248336792,-9.01462459564209,3.709134340286255
1764544922530030000,21.293030029296876,1.129507303237915,-9.013324737548828,3.704092025756836
1764544922546817300,21.3098173828125,1.1644400358200073,-9.012969970703125,3.6941275596618652
1764544922563572200,21.326572265625,1.2032655477523804,-9.014634132385254,3.677588701248169
1764544922580320300,21.3433203125,1.2434161901474,-9.018706321716309,3.6541709899902344
1764544922597107700,21.360107666015626,1.2793151140213013,-9.023794174194336,3.629134178161621
1764544922613830000,21.376829833984374,1.3070777654647827,-9.027496337890625,3.6099846363067627
1764544922630600400,21.393600341796876,1.3308459520339966,-9.029927253723145,3.595189094543457
1764544922647385600,21.410385498046875,1.362797737121582,-9.027244567871094,3.589953660964966
1764544922664146200,21.427146240234375,1.4113377332687378,-9.017520904541016,3.595632791519165
1764544922680888300,21.443888427734375,1.4705531597137451,-9.003246307373047,3.6076529026031494
1764544922697669600,21.460669677734376,1.5270906686782837,-8.990019798278809,3.6171364784240723
1764544922714405400,21.4774052734375,1.5706214904785156,-8.984530448913574,3.612128973007202
1764544922731183400,21.494183349609376,1.597636103630066,-9.010038375854492,3.5359408855438232
1764544922747953700,21.51095361328125,1.6081515550613403,-9.047520637512207,3.4339985847473145
1764544922764698600,21.52769873046875,1.5965536832809448,-9.064436912536621,3.394571304321289
1764544922781451500,21.544451416015626,1.5644948482513428,-9.083879470825195,3.3573222160339355
1764544922798237400,21.561237548828124,1.5175864696502686,-9.105306625366211,3.3206095695495605
1764544922814998800,21.577998779296873,1.4661434888839722,-9.126657485961914,3.2849173545837402
1764544922831731200,21.594731201171875,1.4314777851104736,-9.15416431427002,3.223081350326538
1764544922848528000,21.61152783203125,1.3969937562942505,-9.176259994506836,3.1750197410583496
1764544922865282300,21.6282822265625,1.3575255870819092,-9.191611289978027,3.1476263999938965
1764544922882042400,21.64504248046875,1.3058701753616333,-9.206741333007812,3.1251730918884277
1764544922898805800,21.6618056640625,1.239559531211853,-9.213720321655273,3.131608247756958
1764544922915541200,21.678541259765623,1.1633495092391968,-9.21341323852539,3.1616098880767822
