time,seconds_elapsed,z,y,x
1764544901400472800,0.163472900390625,-0.16539175808429718,0.0682641938328743,-0.12767083942890167
1764544901417564700,0.180564697265625,-0.16768251359462738,0.07223481684923172,-0.15714508295059204
1764544901434655200,0.1976552734375,-0.014813481830060482,0.16019940376281738,-0.05711590126156807
1764544901451742700,0.21474267578125,0.2938261926174164,0.347276896238327,0.19165897369384766
1764544901468838700,0.231838623046875,0.6641632318496704,0.6948592066764832,0.394008070230484
1764544901485953300,0.248953369140625,0.7982481718063354,1.135140299797058,0.4132503271102905
1764544901503058200,0.26605810546875,0.7974845767021179,1.1450668573379517,0.20143280923366547
1764544901520164900,0.283164794921875,0.6091853380203247,0.9071348905563354,-0.08185594528913498
1764544901537251000,0.3002509765625,0.45494189858436584,0.5422956347465515,-0.30970868468284607
1764544901554357800,0.317357666015625,0.3822489380836487,0.33887749910354614,-0.43615779280662537
1764544901571445200,0.3344453125,0.3478877544403076,0.21151208877563477,-0.46960264444351196
1764544901588548400,0.35154833984375,0.0913243517279625,0.48808133602142334,-0.4346306324005127
1764544901605646600,0.368646484375,-0.13041973114013672,0.18188512325286865,-0.12278391420841217
1764544901622742800,0.38574267578125,-0.18784105777740479,-0.16462817788124084,0.07895433157682419
1764544901639833600,0.40283349609375,-0.1359175145626068,-0.3205515444278717,0.19196440279483795
1764544901656921600,0.419921630859375,-0.06444628536701202,-0.3013092875480652,0.2217440903186798
1764544901674028800,0.43702880859375,0.07116580009460449,-0.34636059403419495,0.23808473348617554
1764544901691122000,0.454121826171875,0.037110064178705215,-0.8365799784660339,0.30863967537879944
1764544901708223500,0.471223388671875,-0.004428773187100887,-1.677588701248169,0.42562034726142883
1764544901725313300,0.488313232421875,-0.14645494520664215,-2.518139362335205,0.43020185828208923
1764544901742413300,0.505413330078125,-0.43447789549827576,-2.9239065647125244,0.34773504734039307
1764544901759515400,0.522515380859375,-0.7272350788116455,-2.7093400955200195,0.16142113506793976
1764544901776589000,0.539589111328125,-0.8996517658233643,-1.7789922952651978,-0.04260785132646561
1764544901793699600,0.556699462890625,-0.8295549750328064,-0.9569203853607178,-0.20983220636844635
1764544901810796800,0.573796875,-0.6624833345413208,-0.8093964457511902,-0.2822197377681732
1764544901827887000,0.59088720703125,-0.5354233980178833,-0.9853256344795227,-0.2886338233947754
1764544901844993300,0.6079931640625,-0.4259257912635803,-1.0728321075439453,-0.4505131244659424
1764544901862090000,0.625090087890625,-0.4738787114620209,-1.1494957208633423,-0.9017898440361023
1764544901879179500,0.642179443359375,-0.6676757335662842,-1.2079859972000122,-1.4167492389678955
1764544901896285200,0.65928515625,-0.6166684627532959,-1.2090550661087036,-1.5774067640304565
1764544901913378600,0.676378662109375,-0.3550654351711273,-1.073290228843689,-1.3735305070877075
1764544901930454300,0.693454345703125,-0.13148874044418335,-0.4755585789680481,-0.8996517658233643
1764544901947574800,0.71057470703125,0.022907447069883347,0.17531833052635193,-0.6020076870918274
1764544901964667400,0.72766748046875,0.17302757501602173,0.12446379661560059,-0.49327367544174194
1764544901981760800,0.7447607421875,0.14385876059532166,0.0006108652451075613,-0.34865134954452515
1764544901998859800,0.76185986328125,0.03588833287358284,0.07528914511203766,-0.1742493063211441
1764544902015957500,0.77895751953125,-0.038637228310108185,0.1595885455608368,0.11316278576850891
1764544902033044200,0.796044189453125,-0.11591167747974396,0.4873177409172058,0.2744311988353729
1764544902050149600,0.813149658203125,-0.16050484776496887,0.4859432876110077,0.39187005162239075
1764544902067246000,0.83024609375,-0.30772337317466736,0.4509712755680084,0.3243694305419922
1764544902084338700,0.847338623046875,-0.5006040930747986,0.5097670555114746,0.07284568250179291
1764544902101434400,0.864434326171875,-0.44165557622909546,0.8074111342430115,-0.24113905429840088
1764544902118533400,0.881533447265625,-0.32620203495025635,1.0575604438781738,-0.5247332453727722
1764544902135626000,0.8986259765625,-0.4060726761817932,1.171028733253479,-0.5021312236785889
1764544902152714500,0.915714599609375,-0.451123982667923,0.4155410826206207,-0.36651915311813354
1764544902169827300,0.932827392578125,-0.17088955640792847,0.012828170321881771,-0.17608191072940826
1764544902186923500,0.949923583984375,0.08567385375499725,-0.2551889419555664,-0.05161811411380768
1764544902204022500,0.9670224609375,0.2272418737411499,-0.1589776873588562,-0.2967278063297272
1764544902221130000,0.9841298828125,0.3669773042201996,0.2997821271419525,-0.6386595964431763
1764544902238245600,1.00124560546875,0.3810271918773651,0.627358615398407,-0.7127270102500916
1764544902255270400,1.0182705078125,0.3020728528499603,0.5199990272521973,-0.5867360830307007
1764544902272041200,1.035041259765625,0.35674530267715454,-0.1186605766415596,-0.18478673696517944
1764544902288790500,1.05179052734375,0.35384368896484375,-0.6863071322441101,0.3020728528499603
1764544902305563400,1.0685634765625,0.24404066801071167,-0.8600982427597046,0.664315938949585
1764544902322318000,1.085318115234375,0.2658790946006775,-1.0653489828109741,1.0093021392822266
1764544902339074000,1.102073974609375,-0.0887281745672226,-0.5571091175079346,1.027475357055664
1764544902355841000,1.118841064453125,-0.45723262429237366,-0.29046642780303955,0.8026769161224365
1764544902372608000,1.13560791015625,-0.6742424964904785,-0.33429601788520813,0.6244570016860962
1764544902389356800,1.152356689453125,-0.8258898258209229,-0.24113905429840088,0.5287038683891296
1764544902406124000,1.1691240234375,-1.0731375217437744,-0.3101668357849121,0.5357288122177124
1764544902422891500,1.1858916015625,-1.369254469871521,-0.5145012736320496,0.6288857460021973
1764544902439615000,1.202614990234375,-1.734704613685608,-0.5978843569755554,0.7849618196487427
1764544902456381700,1.219381591796875,-1.5616769790649414,-0.24587325751781464,0.6287330389022827
1764544902473169000,1.2361689453125,-0.6878342628479004,-0.0708603709936142,0.42500948905944824
1764544902489930000,1.252929931640625,-0.4283692538738251,0.027030786499381065,0.365755558013916
1764544902506697200,1.269697265625,-0.29245173931121826,-0.12736541032791138,0.57436603307724
1764544902523452000,1.286451904296875,-0.1612684279680252,-0.4834998548030853,0.7316638231277466
1764544902540211700,1.303211669921875,-0.11652254313230515,-0.8707883954048157,0.6704245805740356
1764544902556977400,1.319977294921875,-0.1713477075099945,-0.8823948502540588,0.4124867618083954
1764544902573731000,1.33673095703125,-0.05757404863834381,-0.44394633173942566,0.26053401827812195
1764544902590497000,1.3534970703125,0.2919935882091522,0.076052725315094,0.370947927236557
1764544902607251500,1.37025146484375,0.5025894045829773,0.28237244486808777,0.5823072791099548
1764544902624025600,1.387025634765625,0.4202753007411957,0.4674646258354187,0.5658139586448669
1764544902640777200,1.403777099609375,0.3306308090686798,0.4918992519378662,0.27030786871910095
1764544902657541000,1.420541015625,0.22815817594528198,0.235030397772789,0.025656340643763542
1764544902674296800,1.437296875,0.13744467496871948,-0.22510384023189545,-0.10170906037092209
1764544902691063800,1.454063720703125,0.20112738013267517,-0.3332269787788391,-0.19043724238872528
1764544902707831300,1.470831298828125,0.5138903856277466,-0.18020524084568024,-0.3926336467266083
1764544902724579600,1.48757958984375,0.8155050873756409,-0.2396118938922882,-0.6035348773002625
1764544902741322000,1.504322021484375,0.8035932183265686,-0.3926336467266083,-0.3149010241031647
1764544902758115600,1.521115478515625,0.6953173875808716,-1.2479976415634155,-0.10980302840471268
1764544902774870000,1.5378701171875,0.5792529582977295,-1.783879280090332,-0.027947084978222847
1764544902791599900,1.554599853515625,0.42959097027778625,-1.9196439981460571,-0.09254608303308487
1764544902808390700,1.571390625,0.3920227587223053,-1.6797267198562622,-0.3859141170978546
1764544902825160200,1.58816015625,0.5942191481590271,-1.0358747243881226,-0.512210488319397
1764544902841910500,1.60491064453125,1.312138557434082,-1.250593900680542,-0.18646661937236786
1764544902858681600,1.621681640625,1.3654365539550781,-1.750434398651123,0.4178318381309509
1764544902875427800,1.638427734375,0.6551529765129089,-2.451402187347412,1.0363328456878662
1764544902892201000,1.655200927734375,0.08155050873756409,-2.696359157562256,1.6368134021759033
1764544902908964900,1.67196484375,0.2102903574705124,-3.1117475032806396,1.8238909244537354
1764544902925719600,1.688719482421875,0.6328563690185547,-3.149468421936035,1.9124664068222046
1764544902942475500,1.7054755859375,1.0952813625335693,-2.842355966567993,1.749212622642517
1764544902959243000,1.722242919921875,1.5989397764205933,-2.216524600982666,0.9138544201850891
1764544902976009000,1.739009033203125,1.8222110271453857,-1.1675162315368652,0.37171149253845215
1764544902992758300,1.75575830078125,2.076483726501465,-0.06948592513799667,0.09147707372903824
1764544903009528600,1.772528564453125,2.500729560852051,0.18860463798046112,0.0024434609804302454
1764544903026256100,1.789256103515625,2.7152960300445557,-0.13057245314121246,-0.06261368840932846
1764544903043051500,1.806051513671875,2.6891815662384033,-0.6635523438453674,-0.25595253705978394
1764544903059815200,1.822815185546875,2.6028966903686523,-0.8565858006477356,-0.5297728776931763
1764544903076572000,1.839572021484375,2.7033841609954834,-0.6099489331245422,-0.537408709526062
1764544903093325600,1.85632568359375,2.813645362854004,-0.2926044464111328,-0.4251621961593628
1764544903110073000,1.873072998046875,2.8660271167755127,-0.2483167201280594,-0.46502116322517395
1764544903126856200,1.889856201171875,2.7010934352874756,0.12461651116609573,-0.7089090943336487
1764544903143595500,1.906595458984375,2.041206121444702,0.07727445662021637,-1.2837333679199219
1764544903160382000,1.9233818359375,1.7356208562850952,0.08750644326210022,-1.6815593242645264
1764544903177137700,1.9401376953125,1.5404493808746338,0.10384709388017654,-1.8727601766586304
1764544903193876000,1.9568759765625,1.163851022720337,0.11957687139511108,-1.6455183029174805
1764544903210659300,1.973659423828125,0.5664247870445251,0.35353827476501465,-1.2412781715393066
1764544903227425800,1.99042578125,-0.17730364203453064,0.7924449443817139,-1.0829113721847534
1764544903244177000,2.007177001953125,-0.9721920490264893,1.1491901874542236,-1.163851022720337
1764544903260947200,2.023947265625,-1.6300939321517944,1.310916781425476,-1.147204875946045
1764544903277704400,2.040704345703125,-2.0302107334136963,1.4847079515457153,-0.8448266386985779
1764544903294459400,2.05745947265625,-2.3660337924957275,1.703092336654663,-0.44974952936172485
1764544903311232300,2.074232177734375,-2.758514642715454,2.1252002716064453,-0.18616119027137756
1764544903327988000,2.090988037109375,-2.9778153896331787,2.512336015701294,-0.038026362657547
1764544903344742700,2.10774267578125,-3.028975248336792,2.9611692428588867,-0.08048149943351746
1764544903361516000,2.12451611328125,-3.1331279277801514,3.2084169387817383,-0.17592918872833252
1764544903378269700,2.141269775390625,-3.308446168899536,3.095712423324585,-0.15806138515472412
1764544903395017700,2.158017822265625,-3.4939963817596436,2.9796478748321533,0.011759156361222267
1764544903411799300,2.17479931640625,-3.6775615215301514,2.9917125701904297,0.38866302371025085
1764544903428554200,2.19155419921875,-3.620598316192627,2.774549961090088,0.9494373202323914
1764544903445283300,2.208283447265625,-3.13205885887146,2.1760547161102295,1.3419182300567627
1764544903462082800,2.225082763671875,-2.4883596897125244,1.041372537612915,1.062447428703308
1764544903478829000,2.2418291015625,-2.0538816452026367,0.49816060066223145,0.44776421785354614
1764544903495601700,2.2586015625,-1.845118522644043,0.5665774941444397,0.18249599635601044
1764544903512366000,2.275365966796875,-1.811673641204834,0.4683809280395508,0.10995574295520782
1764544903529113600,2.292113525390625,-1.8295414447784424,0.3549126982688904,0.19425514340400696
1764544903545883000,2.3088828125,-1.7744108438491821,0.19608774781227112,0.403781920671463
1764544903562649900,2.32564990234375,-1.5815300941467285,0.06765332818031311,0.6423248052597046
1764544903579402500,2.342402587890625,-1.3403910398483276,-0.2142609804868698,0.8080220222473145
1764544903596162000,2.359162109375,-1.1493430137634277,-0.5775730609893799,0.9323330521583557
1764544903612932900,2.375932861328125,-0.9295842051506042,-0.7020368576049805,0.9538660645484924
1764544903629656300,2.39265625,-0.675006091594696,-0.6688974499702454,0.7736608386039734
1764544903646453000,2.409452880859375,-0.5820018649101257,-0.8205447196960449,0.6638578176498413
1764544903663213300,2.42621337890625,-0.5151121020317078,-1.0348057746887207,0.48579058051109314
1764544903679961900,2.4429619140625,-0.6922630667686462,-1.1568260192871094,0.05726861581206322
1764544903696736500,2.459736572265625,-0.746630072593689,-0.5441282391548157,-0.6198754906654358
1764544903713499600,2.476499755859375,-0.631481945514679,0.6282749176025391,-0.9868528246879578
1764544903730254800,2.4932548828125,-0.6227771043777466,1.1059715747833252,-1.0406090021133423
1764544903747010000,2.510010009765625,-0.43799036741256714,0.8387179970741272,-0.8287914395332336
1764544903763783200,2.526783203125,-0.2900082767009735,-0.007941247895359993,-0.570242702960968
1764544903780513000,2.543512939453125,-0.15027284622192383,-0.6458373069763184,-0.34513887763023376
1764544903797294000,2.560294189453125,0.05543602257966995,-0.6780604124069214,-0.168751522898674
1764544903814035700,2.57703564453125,0.3631593883037567,-0.6259841322898865,-0.15515977144241333
1764544903830828000,2.593828125,0.5499314665794373,-0.8231409192085266,-0.26969701051712036
1764544903847577000,2.6105771484375,0.7347181439399719,-1.331380844116211,-0.4105014503002167
1764544903864350000,2.627349853515625,0.879493236541748,-1.8944458961486816,-0.45295658707618713
1764544903881105200,2.644105224609375,1.0719157457351685,-2.311819553375244,-0.3781255781650543
1764544903897860900,2.66086083984375,1.493565559387207,-2.5228734016418457,-0.27488934993743896
1764544903914627300,2.67762744140625,2.0621283054351807,-2.7879889011383057,0.15454891324043274
1764544903931388700,2.694388671875,2.6587910652160645,-3.355635404586792,0.6721044778823853
1764544903948143600,2.7111435546875,3.2922582626342773,-3.6978728771209717,1.196379542350769
1764544903964917200,2.727917236328125,3.866929769515991,-3.7789652347564697,1.7035504579544067
1764544903981672000,2.744671875,4.390135765075684,-3.7756054401397705,1.8781051635742188
1764544903998401300,2.7614013671875,5.116607189178467,-3.4962873458862305,1.9753854274749756
1764544904015200800,2.77820068359375,5.6431732177734375,-3.0079004764556885,1.9341521263122559
1764544904031955500,2.79495556640625,5.8609466552734375,-2.4669792652130127,1.7453947067260742
1764544904048710700,2.811710693359375,5.80016565322876,-2.266615390777588,1.472490668296814
1764544904065484000,2.828484130859375,5.546045780181885,-2.5692992210388184,1.2412781715393066
1764544904082215400,2.84521533203125,5.232671737670898,-3.0027081966400146,1.1229230165481567
1764544904098999800,2.861999755859375,4.791626930236816,-3.123659372329712,1.0253373384475708
1764544904115767600,2.878767578125,4.437478065490723,-3.1413745880126953,0.7712173461914062
1764544904132513300,2.89551318359375,4.212221145629883,-2.766303300857544,0.5728389024734497
1764544904149286100,2.9122861328125,3.9269471168518066,-1.7861700057983398,0.5934556126594543
1764544904166050800,2.92905078125,3.6780195236206055,-1.1601858139038086,0.6386595964431763
1764544904182806000,2.945805908203125,3.503464937210083,-1.0827586650848389,0.8628471493721008
1764544904199560200,2.962560302734375,3.07356858253479,-1.1342240571975708,1.4885258674621582
1764544904216310300,2.979310302734375,2.3823745250701904,-1.4054481983184814,2.353205680847168
1764544904233065500,2.9960654296875,1.1252137422561646,-2.900693655014038,2.311514139175415
1764544904249844200,3.01284423828125,0.4859432876110077,-2.70292592048645,1.7127134799957275
1764544904266617900,3.029617919921875,0.21884247660636902,-1.3755158185958862,1.2672399282455444
1764544904283364000,3.046364013671875,-0.38698312640190125,-0.09957103431224823,1.410946011543274
1764544904300136700,3.06313671875,-0.7472409009933472,0.6285803318023682,1.8448129892349243
1764544904316869400,3.079869384765625,-0.9419541954994202,1.2631165981292725,2.3666446208953857
1764544904333654500,3.096654541015625,-1.0790934562683105,2.827542543411255,2.571284532546997
1764544904350418400,3.11341845703125,-1.3536773920059204,4.2586469650268555,1.7791450023651123
1764544904367197400,3.130197509765625,-1.4159855842590332,4.2279510498046875,1.2669345140457153
1764544904383939300,3.146939208984375,-0.950506329536438,3.9214494228363037,1.2050844430923462
1764544904400702700,3.16370263671875,0.2768746614456177,1.5661057233810425,0.37262779474258423
1764544904417467400,3.18046728515625,1.2928962707519531,-0.3625485301017761,0.9787588119506836
1764544904434197000,3.197197021484375,2.0925188064575195,-1.3947581052780151,0.9908234477043152
1764544904467719700,3.2307197265625,2.4132232666015625,-0.021838432177901268,0.1765400618314743
1764544904492873500,3.25587353515625,2.1371121406555176,0.2373211532831192,0.304210901260376
1764544904509630500,3.27263037109375,1.9894354343414307,0.2474004179239273,0.3208569586277008
1764544904526382800,3.2893828125,1.345583438873291,0.07666359096765518,0.3228422701358795
1764544904559906000,3.322906005859375,-0.3381139039993286,0.9445503950119019,-0.2692388594150543
1764544904576685800,3.339685791015625,-1.4471397399902344,1.2489140033721924,-0.36651915311813354
1764544904593464800,3.35646484375,-2.0535762310028076,1.5190691947937012,-0.16844609379768372
1764544904610187500,3.3731875,-2.327702045440674,1.6291775703430176,-0.06841690838336945
1764544904635362000,3.398362060546875,-1.2996158599853516,0.4735732674598694,-0.15546520054340363
1764544904652122600,3.41512255859375,-0.7664831876754761,0.1007927656173706,0.3833179473876953
1764544904679328500,3.44232861328125,0.39095374941825867,0.009926560334861279,0.2197587788105011
1764544904696088800,3.4590888671875,0.493731826543808,0.14416420459747314,0.035124752670526505
1764544904712848000,3.475847900390625,0.40622538328170776,0.5401576161384583,0.126143679022789
1764544904729602300,3.492602294921875,0.2672535479068756,0.8591819405555725,0.33567044138908386
1764544904746386000,3.509385986328125,0.020463986322283745,1.5068517923355103,1.016479730606079
1764544904763143000,3.526142822265625,-0.25274550914764404,1.2182179689407349,1.3168727159500122
1764544904779924700,3.5429248046875,-0.5047274231910706,1.570534586906433,0.8478809595108032
1764544904796656000,3.55965625,-0.7266241908073425,1.309084177017212,0.5942191481590271
1764544904813436400,3.5764365234375,-0.48685958981513977,1.049924612045288,0.41431936621665955
1764544904830195700,3.59319580078125,0.04184427112340927,0.702800452709198,-0.16630806028842926
1764544904846971600,3.6099716796875,0.7443392872810364,0.5290092825889587,-0.698066234588623
1764544904863726300,3.626726318359375,1.395827054977417,-0.02168571576476097,-0.9398161768913269
1764544904880488000,3.643488037109375,2.0897700786590576,-0.9062185883522034,-1.1574369668960571
1764544904897232400,3.660232421875,2.67757511138916,-1.6252069473266602,-1.5937473773956299
1764544904913984000,3.67698388671875,3.226895570755005,-2.392301082611084,-2.189188241958618
1764544904930741200,3.6937412109375,4.147927761077881,-3.275001287460327,-2.6894869804382324
1764544904947536400,3.710536376953125,4.251774787902832,-3.6554176807403564,-2.2456934452056885
1764544904964286700,3.72728662109375,3.1369457244873047,-2.349998712539673,-1.9239200353622437
1764544904981060000,3.74406005859375,2.1368067264556885,-0.4401284158229828,-1.9147571325302124
1764544904997815600,3.760815673828125,1.468672752380371,-0.6214026808738708,-1.9834794998168945
1764544905014577200,3.7775771484375,1.6308574676513672,-1.8872681856155396,-1.7285959720611572
1764544905031337500,3.79433740234375,1.8306103944778442,-2.8883235454559326,-1.4515684843063354
1764544905048098800,3.811098876953125,1.8805487155914307,-2.6537513732910156,-1.2932016849517822
1764544905064860200,3.827860107421875,1.4879150390625,-2.521040916442871,-1.4553864002227783
1764544905081621000,3.84462109375,1.47844660282135,-2.0427334308624268,-2.482250928878784
1764544905098382000,3.861382080078125,1.2980886697769165,-1.1003210544586182,-1.6768250465393066
1764544905115116500,3.878116455078125,1.168279767036438,-0.41172316670417786,-0.9051495790481567
1764544905131904000,3.894904052734375,0.8378016948699951,0.07116580009460449,-0.6501133441925049
1764544905148627700,3.911627685546875,0.5316054821014404,0.4818199574947357,-0.6110179424285889
1764544905165426200,3.92842626953125,0.11362093687057495,0.6629415154457092,-0.4862487316131592
1764544905182181000,3.94518115234375,-0.24877487123012543,1.1090258359909058,-0.30833423137664795
1764544905198955300,3.961955322265625,-0.11285735666751862,0.4602869749069214,-0.020922135561704636
1764544905215715800,3.9787158203125,0.006261368747800589,0.8816312551498413,-0.5659666657447815
1764544905232466000,3.9954658203125,-0.6029239892959595,2.149176597595215,-0.4813618063926697
1764544905249232600,4.012232666015625,-0.6479753255844116,1.5880969762802124,-0.6574437022209167
1764544905265985800,4.02898583984375,0.10659598559141159,1.0560332536697388,-1.3063353300094604
1764544905282762500,4.045762451171875,1.0073168277740479,0.6044511795043945,-1.383457064628601
1764544905299516000,4.062515869140625,1.0613783597946167,1.785559058189392,-0.3799581825733185
1764544905316277000,4.079277099609375,0.7545713186264038,1.3513866662979126,0.3306308090686798
1764544905333037800,4.096037841796875,0.4583016633987427,0.5740606188774109,0.43020185828208923
1764544905349793000,4.11279296875,0.24755313992500305,0.029626963660120964,0.18341228365898132
1764544905366558200,4.12955810546875,0.08017606288194656,-0.3248275816440582,-0.21578814089298248
1764544905383321000,4.146321044921875,-0.36789360642433167,-0.11835514008998871,-0.8083274364471436
1764544905400057000,4.16305712890625,-0.5816964507102966,-0.3266601860523224,-0.8686503767967224
1764544905416844500,4.179844482421875,-0.5305364727973938,-0.16951510310173035,-0.8072584271430969
1764544905433594000,4.196593994140625,-0.30482175946235657,-0.08659014850854874,-0.4444044530391693
1764544905450376700,4.213376708984375,-0.23869559168815613,-0.1690569519996643,-0.09117163717746735
1764544905467134000,4.230134033203125,-0.30512720346450806,0.5422956347465515,-0.003359758760780096
1764544905483882000,4.246882080078125,-0.2269364446401596,0.7733554244041443,0.05604688450694084
1764544905500649200,4.263649169921875,-0.30283644795417786,-0.1082758679986,0.45295658707618713
1764544905517410800,4.280410888671875,-0.33719760179519653,-0.02580905705690384,0.5531384944915771
1764544905534199600,4.297199462890625,-0.12034045159816742,0.39843684434890747,0.20861047506332397
1764544905550933800,4.313933837890625,0.21303924918174744,0.0884227454662323,0.09193521738052368
1764544905567693800,4.33069384765625,0.46532660722732544,-0.33078351616859436,-0.0507018156349659
1764544905584454700,4.34745458984375,0.3929390609264374,-0.1742493063211441,-0.2987131178379059
1764544905601216500,4.364216552734375,0.32268956303596497,-0.08659014850854874,-0.4021020531654358
1764544905617940000,4.38093994140625,0.31123584508895874,-0.03985895588994026,-0.394008070230484
1764544905634738700,4.39773876953125,0.2678644061088562,-0.12660181522369385,-0.27519479393959045
1764544905651482000,4.414482177734375,0.23167064785957336,-0.2503020465373993,-0.09865473955869675
1764544905668260600,4.431260498046875,0.26190847158432007,-0.23518311977386475,0.27351492643356323
1764544905685016300,4.448016357421875,0.251676470041275,-0.03375030308961868,0.5158756971359253
1764544905701787600,4.46478759765625,0.164170041680336,0.05467243865132332,0.422871470451355
1764544905718522000,4.481522216796875,0.05253441259264946,-0.08689557760953903,0.12431107461452484
1764544905735311000,4.49831103515625,0.00809396430850029,-0.1033889427781105,0.020922135561704636
1764544905752066800,4.51506689453125,-0.0003054326225537807,-0.4456261992454529,-0.3387247920036316
1764544905768830500,4.53183056640625,0.0981965884566307,-1.4828753471374512,-1.547932505607605
1764544905785588700,4.548588623046875,0.06994406878948212,-1.3897184133529663,-1.1965322494506836
1764544905802350300,4.565350341796875,0.055283304303884506,-0.9118691086769104,-0.4992296099662781
1764544905819078100,4.582078125,0.08827003091573715,-0.25473082065582275,0.10552696883678436
1764544905835872300,4.598872314453125,0.0555887371301651,0.10323622822761536,0.4999932050704956
1764544905852633900,4.6156337890625,0.07437284290790558,0.2503020465373993,0.5134322643280029
1764544905869367000,4.632366943359375,0.062460970133543015,0.09239336848258972,0.30970868468284607
1764544905886155500,4.649155517578125,0.07559457421302795,-0.1586722433567047,0.05192354694008827
1764544905902891000,4.66589111328125,0.09300423413515091,-0.3095559775829315,-0.09834930300712585
1764544905919666000,4.682666015625,0.1365283876657486,-0.32620203495025635,-0.062460970133543015
1764544905936444000,4.69944384765625,0.13866640627384186,-0.32039880752563477,0.06383541971445084
1764544905953200600,4.71620068359375,0.12232576310634613,-0.31123584508895874,0.17012597620487213
1764544905969953800,4.732953857421875,0.168751522898674,-0.21090123057365417,0.23869559168815613
1764544905986727000,4.749726806640625,0.24007004499435425,0.007635815534740686,0.2399173229932785
1764544906003484200,4.766484130859375,0.25763240456581116,0.1944078654050827,0.18387043476104736
1764544906020242000,4.783241943359375,0.2194533348083496,0.20723603665828705,0.20494529604911804
1764544906037011500,4.800011474609375,0.09483683109283447,-0.00015271631127689034,0.22815817594528198
1764544906053772800,4.816772705078125,-0.04932736977934837,-0.26679539680480957,0.1918116807937622
1764544906070528300,4.8335283203125,-0.20066922903060913,-0.5890268087387085,0.13484850525856018
1764544906087289300,4.850289306640625,-0.34376442432403564,-0.7438811659812927,0.07757988572120667
1764544906104050400,4.867050537109375,-0.41920626163482666,-0.7189884185791016,0.07727445662021637
1764544906120811500,4.8838115234375,-0.4156937897205353,-0.5520694851875305,0.12629638612270355
1764544906137572900,4.90057275390625,-0.3770565688610077,-0.39156460762023926,0.1875356286764145
1764544906154301000,4.917301025390625,-0.31413745880126953,-0.2912299931049347,0.24877487123012543
1764544906171095000,4.934094970703125,-0.24572055041790009,-0.13790282607078552,0.25503623485565186
1764544906187850000,4.95085009765625,-0.18768835067749023,-0.0913243517279625,0.23365595936775208
1764544906204622800,4.967622802734375,-0.15134187042713165,-0.10323622822761536,0.17837265133857727
1764544906221379800,4.9843798828125,-0.10476338863372803,-0.17669276893138885,0.12370020896196365
1764544906238137900,5.001137939453125,-0.06322455406188965,-0.21212296187877655,0.12247848510742188
1764544906254901200,5.0179013671875,-0.047800205647945404,-0.14966198801994324,0.17989981174468994
1764544906271623700,5.034623779296875,-0.03451388701796532,0.010842857882380486,0.26083946228027344
1764544906288427800,5.051427734375,-0.04153883829712868,0.2122756689786911,0.31551191210746765
1764544906305184300,5.068184326171875,-0.08200865983963013,0.21960605680942535,0.3491095006465912
1764544906321953300,5.084953369140625,-0.09300423413515091,0.1768454909324646,0.3471241891384125
1764544906338700300,5.1017001953125,-0.09437867999076843,0.14844025671482086,0.32818734645843506
1764544906355468500,5.118468505859375,-0.09147707372903824,0.02382374368607998,0.27977627515792847
1764544906372182800,5.135182861328125,-0.09972374886274338,-0.13408492505550385,0.20463985204696655
1764544906388990000,5.151989990234375,-0.1459967941045761,-0.19822576642036438,0.09926560521125793
1764544906405731800,5.16873193359375,-0.18066339194774628,-0.2119702398777008,0
1764544906422472400,5.185472412109375,-0.23839016258716583,-0.15500704944133759,-0.04535674303770065
1764544906439272400,5.2022724609375,-0.25076019763946533,-0.1235474944114685,0.03390302136540413
1764544906456034800,5.219034912109375,-0.25213462114334106,0.04260785132646561,0.16142113506793976
1764544906472761000,5.235760986328125,-0.21594086289405823,0.17577648162841797,0.29016098380088806
1764544906489546000,5.2525458984375,-0.14446963369846344,0.23945917189121246,0.4024074673652649
1764544906506329000,5.2693291015625,-0.08399397134780884,0.24678955972194672,0.3929390609264374
1764544906523051000,5.286051025390625,-0.021838432177901268,0.09437867999076843,0.2808452844619751
1764544906539817200,5.302817138671875,0.04230241850018501,0.10262536257505417,0.15103642642498016
1764544906556601600,5.3196015625,0.08368854224681854,0.00809396430850029,0.13698652386665344
1764544906573362200,5.336362060546875,0.17608191072940826,0.01191187184303999,0.11835514008998871
1764544906590123500,5.35312353515625,0.23426681756973267,-0.03451388701796532,0.12217304855585098
1764544906606884600,5.369884521484375,0.2715296149253845,-0.10705413669347763,0.12308934330940247
1764544906623646000,5.38664599609375,0.2900082767009735,0.009162978269159794,0.1469130963087082
1764544906640406300,5.40340625,0.30115658044815063,0.17516560852527618,0.17440202832221985
1764544906657123000,5.420123046875,0.3078760802745819,0.3055853247642517,0.13148874044418335
1764544906673910000,5.436909912109375,0.2877175211906433,0.3162754774093628,0.03375030308961868
1764544906690682600,5.4536826171875,0.2646573781967163,0.30863967537879944,-0.06185010448098183
1764544906707458000,5.4704580078125,0.24923302233219147,0.2838996350765228,-0.14263702929019928
1764544906724212700,5.487212646484375,0.18219055235385895,0.1999056488275528,-0.17898350954055786
1764544906740973300,5.503973388671875,0.13729196786880493,0.10751228034496307,-0.14309518039226532
1764544906757750800,5.520750732421875,0.14874568581581116,0.08475755155086517,0.003054326167330146
1764544906774460700,5.537460693359375,0.14065171778202057,0.01710422709584236,0.10903944820165634
1764544906791260200,5.55426025390625,0.14385876059532166,0.00809396430850029,0.1719585657119751
1764544906808018200,5.57101806640625,0.16340644657611847,0.2538145184516907,0.275347501039505
1764544906824780000,5.587780029296875,0.20326541364192963,0.4043927788734436,0.28787025809288025
1764544906841539800,5.604539794921875,0.2275473028421402,0.5357288122177124,0.17088955640792847
1764544906858302200,5.62130224609375,0.22342395782470703,0.5207626223564148,-0.0006108652451075613
1764544906875037400,5.638037353515625,0.23777928948402405,0.41523563861846924,-0.19792033731937408
1764544906891823900,5.654823974609375,0.2638937830924988,0.25534167885780334,-0.3251330256462097
1764544906908567000,5.671567138671875,0.27259862422943115,0.15622878074645996,-0.313373863697052
1764544906925330000,5.688329833984375,0.20891591906547546,0.1270599663257599,-0.17821992933750153
1764544906942081500,5.70508154296875,0.0529925599694252,0.057879481464624405,-0.02474004216492176
1764544906958868500,5.721868408203125,-0.09651670604944229,-0.009926560334861279,0.09422596544027328
1764544906975634200,5.73863427734375,-0.16111570596694946,-0.046731192618608475,0.15500704944133759
1764544906992390400,5.755390380859375,-0.2028072625398636,0.005039638374000788,0.1492038369178772
1764544907009152800,5.77215283203125,-0.15515977144241333,0.1440114825963974,0.040164388716220856
1764544907025863700,5.78886376953125,-0.09300423413515091,0.26374107599258423,-0.11911872029304504
1764544907042680000,5.80568017578125,-0.00733038317412138,0.4421137273311615,-0.2767219543457031
1764544907059435800,5.822435791015625,0.043218716979026794,0.49296826124191284,-0.41813725233078003
1764544907076196900,5.83919677734375,0.06627888232469559,0.5042692422866821,-0.5499314665794373
1764544907092957700,5.855957763671875,0.12232576310634613,0.4789183437824249,-0.6493497490882874
1764544907109713700,5.872713623046875,0.09010262042284012,0.42791110277175903,-0.7105889916419983
1764544907126485500,5.889485595703125,-0.05742133408784866,0.2816088795661926,-0.6983717083930969
1764544907143240700,5.90624072265625,-0.19532416760921478,0.3019201457500458,-0.6976081132888794
1764544907159980500,5.92298046875,-0.2765692472457886,0.2226603776216507,-0.6548475623130798
1764544907176763400,5.939763427734375,-0.3211624026298523,0.12599095702171326,-0.5787948369979858
1764544907193499400,5.95649951171875,-0.33169981837272644,0.04963280260562897,-0.4967861473560333
1764544907210285600,5.97328564453125,-0.2770273983478546,0.08170322328805923,-0.4612032473087311
1764544907227047200,5.990047119140625,-0.17012597620487213,0.0377209298312664,-0.47342056035995483
1764544907243807500,6.006807373046875,-0.11468994617462158,-0.03084869496524334,-0.4821254014968872
1764544907260563700,6.023563720703125,-0.045204028487205505,0.033139441162347794,-0.46502116322517395
1764544907277303600,6.040303466796875,0.031154127791523933,0.15042556822299957,-0.40882155299186707
1764544907294060300,6.057060302734375,0.11514809727668762,0.24113905429840088,-0.33047810196876526
1764544907310858800,6.073858642578125,0.166460782289505,0.29856038093566895,-0.2762638032436371
1764544907327610600,6.090610595703125,0.14004085958003998,0.3292563557624817,-0.2698497176170349
1764544907344374500,6.10737451171875,0.09560041129589081,0.2929098904132843,-0.294895201921463
1764544907361137200,6.12413720703125,0.036193765699863434,0.20005837082862854,-0.30833423137664795
1764544907377900000,6.140900146484375,-0.013439035043120384,0.08689557760953903,-0.2877175211906433
1764544907394658800,6.157658935546875,-0.03390302136540413,-0.012828170321881771,-0.24953845143318176
1764544907411394000,6.17439404296875,-0.026419922709465027,-0.06994406878948212,-0.22082778811454773
1764544907428136400,6.191136474609375,-0.003359758760780096,-0.12171489745378494,-0.19654589891433716
1764544907444912400,6.207912353515625,0.021991148591041565,-0.18066339194774628,-0.17150041460990906
1764544907461703400,6.224703369140625,0.025503624230623245,-0.235030397772789,-0.15775595605373383
1764544907478425300,6.24142529296875,-0.005803219974040985,-0.3251330256462097,-0.15424346923828125
1764544907495225300,6.258225341796875,-0.04734205827116966,-0.4599815309047699,-0.13973543047904968
1764544907511981600,6.274981689453125,-0.1518000066280365,-0.4303545653820038,-0.13347405195236206
1764544907528720100,6.29172021484375,-0.21151208877563477,-0.5096143484115601,-0.03940080851316452
1764544907545508000,6.308508056640625,-0.23426681756973267,-0.5250386595726013,0.13011430203914642
1764544907562270200,6.325270263671875,-0.18784105777740479,-0.4804455041885376,0.299018532037735
1764544907578984200,6.341984130859375,-0.09926560521125793,-0.3827070891857147,0.4544837474822998
1764544907595792100,6.358792236328125,-0.022449297830462456,-0.22311852872371674,0.5407684445381165
1764544907612553700,6.3755537109375,0.010690141469240189,-0.13408492505550385,0.5015203952789307
1764544907629273000,6.392273193359375,-0.0019853119738399982,-0.15622878074645996,0.3623957931995392
1764544907646075000,6.409074951171875,-0.024892758578062057,-0.20723603665828705,0.22647829353809357
1764544907662822000,6.42582177734375,0.030237829312682152,-0.1843285858631134,0.19578230381011963
1764544907679562200,6.442562255859375,0.09208793938159943,-0.26832255721092224,0.2477058619260788
1764544907696341200,6.45934130859375,0.13790282607078552,-0.26313021779060364,0.30833423137664795
1764544907713120300,6.476120361328125,0.21868975460529327,-0.30894508957862854,0.394008070230484
1764544907729845000,6.492844970703125,0.3090978264808655,-0.17623461782932281,0.39797869324684143
1764544907746648300,6.5096484375,0.2525927722454071,0.02229658141732216,0.3306308090686798
1764544907763397400,6.5263974609375,0.11881329119205475,-0.054367005825042725,0.2889392673969269
1764544907780161500,6.54316162109375,0.001832595793530345,-0.1814269721508026,0.20433442294597626
1764544907796925700,6.55992578125,-0.05161811411380768,-0.34162637591362,0.09697485715150833
1764544907813687000,6.57668701171875,-0.12797626852989197,-0.5842925906181335,0.03237585723400116
1764544907830443500,6.593443603515625,-0.2119702398777008,-0.6852380633354187,0.004734205547720194
1764544907847209500,6.61020947265625,-0.2565633952617645,-0.6067419052124023,0.029626963660120964
1764544907863970600,6.626970458984375,-0.26633724570274353,-0.4411974251270294,0.12186761945486069
1764544907880693000,6.64369287109375,-0.25854870676994324,-0.23839016258716583,0.2591595947742462
1764544907897511400,6.660511474609375,-0.26740625500679016,-0.02275473065674305,0.3767511546611786
1764544907914229200,6.677229248046875,-0.2837468981742859,0.1394299864768982,0.42088615894317627
1764544907931006000,6.694005859375,-0.28206703066825867,0.16859880089759827,0.3813326358795166
1764544907947739000,6.71073876953125,-0.24724771082401276,0.12324206531047821,0.294437050819397
1764544907964511700,6.72751171875,-0.19379699230194092,0.04077525436878204,0.21807889640331268
1764544907981284600,6.74428466796875,-0.13072516024112701,-0.021838432177901268,0.17806722223758698
1764544907998048500,6.761048583984375,-0.08689557760953903,-0.04382958263158798,0.1612684279680252
1764544908014814700,6.777814697265625,-0.07147123664617538,-0.016340645030140877,0.14217889308929443
1764544908031572200,6.794572265625,-0.09086620807647705,0.012828170321881771,0.11957687139511108
1764544908048342300,6.81134228515625,-0.13820825517177582,0.02122756652534008,0.11438451707363129
1764544908065104100,6.828104248046875,-0.16829337179660797,0.04245513305068016,0.15347988903522491
1764544908081862400,6.8448623046875,-0.197004035115242,0.03741549700498581,0.27091872692108154
1764544908098632700,6.8616328125,-0.21578814089298248,0.014813481830060482,0.3868304193019867
1764544908115387600,6.8783876953125,-0.2047925740480423,-0.04398229718208313,0.4300491213798523
1764544908132105000,6.89510498046875,-0.18310685455799103,-0.04566217586398125,0.34804046154022217
1764544908148909600,6.91190966796875,-0.15057829022407532,-0.06643159687519073,0.21914790570735931
1764544908165671200,6.928671142578125,-0.09666942805051804,-0.0887281745672226,0.11178833991289139
1764544908182393300,6.945393310546875,-0.049785517156124115,-0.07925976812839508,0.06169738993048668
1764544908199163400,6.962163330078125,-0.044287730008363724,-0.030085112899541855,0.0806342139840126
1764544908215955000,6.978954833984375,-0.08216137439012527,0.05543602257966995,0.1417207419872284
1764544908232682200,6.99568212890625,-0.1362229436635971,0.13927727937698364,0.21319197118282318
1764544908249476000,7.01247607421875,-0.13439035415649414,0.17409659922122955,0.24678955972194672
1764544908266231800,7.029231689453125,-0.11209376901388168,0.15317445993423462,0.23228150606155396
1764544908282977000,7.04597705078125,-0.0708603709936142,0.0959058403968811,0.18585574626922607
1764544908299759600,7.062759521484375,-0.01618792861700058,0.027947084978222847,0.13439035415649414
1764544908316521200,7.079521240234375,0.03894266113638878,-0.005345070734620094,0.09773843735456467
1764544908333283300,7.096283447265625,0.09224065393209457,-0.01878410577774048,0.07528914511203766
1764544908350043400,7.11304345703125,0.1391245573759079,0.018936822190880775,0.06398813426494598
1764544908366804700,7.1298046875,0.1690569519996643,0.07895433157682419,0.04505131021142006
1764544908383565600,7.146565673828125,0.18081611394882202,0.14385876059532166,0.013133603148162365
1764544908400326400,7.163326416015625,0.19257527589797974,0.1918116807937622,-0.019089538604021072
1764544908417088500,7.180088623046875,0.20387627184391022,0.22617286443710327,-0.03955352306365967
1764544908433843700,7.19684375,0.21807889640331268,0.23900102078914642,-0.04795292019844055
1764544908450566100,7.213566162109375,0.2373211532831192,0.2344195395708084,-0.04917465150356293
1764544908467371800,7.230371826171875,0.2580905556678772,0.23151792585849762,-0.04993823543190956
1764544908484131300,7.24713134765625,0.26862800121307373,0.23716843128204346,-0.058184914290905
1764544908500893700,7.263893798828125,0.27000242471694946,0.2535090744495392,-0.0832303911447525
1764544908517655300,7.2806552734375,0.2646573781967163,0.26083946228027344,-0.10812314599752426
1764544908534400500,7.297400390625,0.24556782841682434,0.2509129047393799,-0.10659598559141159
1764544908551177000,7.314177001953125,0.21731531620025635,0.23777928948402405,-0.0832303911447525
1764544908567939000,7.33093896484375,0.18387043476104736,0.2255619913339615,-0.058948494493961334
1764544908584699400,7.347699462890625,0.14935655891895294,0.2142609804868698,-0.03741549700498581
1764544908601460500,7.36446044921875,0.11301007121801376,0.2165517359972,-0.013133603148162365
1764544908618222300,7.381222412109375,0.076052725315094,0.2370157092809677,0.009468411095440388
1764544908634951000,7.397950927734375,0.0529925599694252,0.28787025809288025,0.030543262138962746
1764544908651743500,7.414743408203125,0.04199698567390442,0.3597996234893799,0.06291911751031876
1764544908668505000,7.431505126953125,0.03955352306365967,0.39813143014907837,0.05665775015950203
1764544908685238500,7.448238525390625,0.04092797264456749,0.3747658133506775,0.01970040425658226
1764544908701981000,7.46498095703125,0.035582900047302246,0.29657506942749023,-0.05390885844826698
1764544908718788600,7.48178857421875,-0.0012217304902151227,0.17699819803237915,-0.12996158003807068
1764544908735524400,7.4985244140625,-0.040164388716220856,0.03940080851316452,-0.15836681425571442
1764544908752310500,7.515310546875,-0.06887505948543549,-0.07040221989154816,-0.12140946835279465
1764544908769073000,7.532072998046875,-0.07987063378095627,-0.09254608303308487,-0.036041051149368286
1764544908785793800,7.548793701171875,-0.06902777403593063,-0.03741549700498581,0.04260785132646561
1764544908802578200,7.565578125,-0.00809396430850029,0.02428189292550087,0.0705549344420433
1764544908819356200,7.582356201171875,0.06108652427792549,0.14508049190044403,0.03084869496524334
1764544908836117800,7.59911767578125,0.12858712673187256,0.31749722361564636,-0.06505715101957321
1764544908852877600,7.615877685546875,0.1846340149641037,0.4954117238521576,-0.20402899384498596
1764544908869633000,7.632633056640625,0.19288070499897003,0.5994115471839905,-0.36392298340797424
1764544908886407000,7.649406982421875,0.14523321390151978,0.6061310172080994,-0.5048801302909851
1764544908903161000,7.6661611328125,0.0607810914516449,0.4899139404296875,-0.6061310172080994
1764544908919922400,7.68292236328125,-0.06459899991750717,0.27091872692108154,-0.6780604124069214
1764544908936651500,7.699651611328125,-0.21609358489513397,-0.02122756652534008,-0.7177666425704956
1764544908953399800,7.71639990234375,-0.36071592569351196,-0.30634891986846924,-0.7110471725463867
1764544908970206700,7.733206787109375,-0.4369213581085205,-0.5105306506156921,-0.6296493411064148
1764544908986947300,7.749947265625,-0.4144720733165741,-0.5853615999221802,-0.48456886410713196
1764544909003728000,7.766727783203125,-0.3631593883037567,-0.5267185568809509,-0.3248275816440582
1764544909020489500,7.783489501953125,-0.2301434874534607,-0.4161519408226013,-0.18509216606616974
1764544909037255700,7.800255615234375,-0.0780380368232727,-0.30222558975219727,-0.04688390716910362
1764544909053986300,7.816986328125,0.006719517521560192,-0.16249015927314758,0.06398813426494598
1764544909070773200,7.833773193359375,0.04108068719506264,0.01191187184303999,0.12599095702171326
1764544909087534300,7.850534423828125,0.08460483700037003,0.11621711403131485,0.14019356667995453
1764544909104295000,7.867294921875,0.13041973114013672,0.17730364203453064,0.09117163717746735
1764544909121056300,7.88405615234375,0.12690725922584534,0.17547103762626648,-0.03451388701796532
1764544909137801700,7.9008017578125,0.10705413669347763,0.06398813426494598,-0.1872301995754242
1764544909154579200,7.9175791015625,0.08445212244987488,-0.06734789162874222,-0.30802878737449646
1764544909171340000,7.934340087890625,0.0907134860754013,-0.17669276893138885,-0.3689626157283783
1764544909188104700,7.951104736328125,0.12767083942890167,-0.26145032048225403,-0.36453384160995483
1764544909204830000,7.967829833984375,0.17989981174468994,-0.3501785099506378,-0.29077184200286865
1764544909221623300,7.984623291015625,0.22357667982578278,-0.4129449129104614,-0.17302757501602173
1764544909238341400,8.00134130859375,0.22815817594528198,-0.355981707572937,-0.04444044828414917
1764544909255145700,8.018145751953124,0.19089539349079132,-0.21105393767356873,0.06887505948543549
1764544909271900700,8.034900634765625,0.18860463798046112,-0.11545353382825851,0.14996741712093353
1764544909288639000,8.051638916015625,0.14569136500358582,-0.03481931984424591,0.16310101747512817
1764544909305423000,8.068423095703125,0.07528914511203766,-0.033597588539123535,0.15454891324043274
1764544909322196700,8.08519677734375,0.012064588256180286,-0.09346238523721695,0.17027868330478668
1764544909338951200,8.101951171875,-0.03451388701796532,-0.166460782289505,0.2278527319431305
1764544909355712000,8.1187119140625,-0.0403171069920063,-0.2652682363986969,0.29168814420700073
1764544909372474400,8.135474365234375,-0.030543262138962746,-0.34895676374435425,0.31001409888267517
1764544909389239300,8.1522392578125,-0.014966198243200779,-0.41828998923301697,0.2692388594150543
1764544909405996000,8.16899609375,-0.006261368747800589,-0.4889976382255554,0.19303341209888458
1764544909422756900,8.1857568359375,-0.07864890247583389,-0.36942076683044434,0.12996158003807068
1764544909439488500,8.202488525390624,-0.06811147183179855,-0.28008171916007996,0.1618792861700058
1764544909456259800,8.219259765625,-0.02626720629632473,-0.11545353382825851,0.24373523890972137
1764544909473041400,8.23604150390625,0.04932736977934837,-0.0025961773935705423,0.32849279046058655
1764544909489777000,8.25277685546875,0.1036943718791008,0.012675453908741474,0.3381139039993286
1764544909506569000,8.26956884765625,0.07880161702632904,-0.05696318298578262,0.2767219543457031
1764544909523324400,8.286324462890626,0.0754418596625328,-0.19746218621730804,0.1716531366109848
1764544909540057300,8.303057373046874,0.10781771689653397,-0.25076019763946533,0.07666359096765518
1764544909556844500,8.319844482421875,0.15836681425571442,-0.21853704750537872,0.021838432177901268
1764544909573610200,8.3366103515625,0.17501288652420044,-0.15317445993423462,-0.012217304669320583
1764544909590359800,8.35335986328125,0.17318029701709747,-0.08139779418706894,-0.013897184282541275
1764544909607130000,8.370130126953125,0.1736384481191635,0.03726277872920036,0.019089538604021072
1764544909623891700,8.3868916015625,0.18509216606616974,0.21792617440223694,0.046731192618608475
1764544909640648200,8.403648193359375,0.21502456068992615,0.41630467772483826,0.06627888232469559
1764544909657413400,8.420413330078125,0.23609942197799683,0.5777258276939392,0.07528914511203766
1764544909674198300,8.4371982421875,0.22937989234924316,0.6574437022209167,0.02626720629632473
1764544909690937000,8.45393701171875,0.21853704750537872,0.6278167366981506,-0.07895433157682419
1764544909707662000,8.470662109375,0.18707747757434845,0.494189977645874,-0.22831088304519653
1764544909724458200,8.487458251953125,0.10048733651638031,0.31841349601745605,-0.34605515003204346
1764544909741213200,8.504213134765624,-0.025656340643763542,0.1719585657119751,-0.34926220774650574
1764544909757977300,8.520977294921876,-0.15195272862911224,0.026419922709465027,-0.2557998299598694
1764544909774742300,8.5377421875,-0.24602597951889038,-0.09651670604944229,-0.1160643994808197
1764544909791502800,8.5545029296875,-0.30482175946235657,-0.12782354652881622,-0.0029016099870204926
1764544909808257000,8.571257080078125,-0.33246341347694397,-0.08078692853450775,0.030085112899541855
1764544909825032000,8.588031982421874,-0.33307427167892456,0.012217304669320583,0.005345070734620094
1764544909841786400,8.604786376953125,-0.3090978264808655,0.1111774742603302,-0.05100724846124649
1764544909858547700,8.621547607421874,-0.29138273000717163,0.1699732542037964,-0.13072516024112701
1764544909875309000,8.63830908203125,-0.29535335302352905,0.18814650177955627,-0.20082195103168488
1764544909892037000,8.655037109375,-0.30543261766433716,0.22815817594528198,-0.19685132801532745
1764544909908835300,8.67183544921875,-0.30085113644599915,0.3127630054950714,-0.10797043144702911
1764544909925592000,8.688592041015625,-0.266642689704895,0.379652738571167,0.010537425056099892
1764544909942326000,8.705325927734375,-0.20570887625217438,0.36880987882614136,0.0887281745672226
1764544909959081000,8.7220810546875,-0.14278975129127502,0.2629774808883667,0.10705413669347763
1764544909975876000,8.7388759765625,-0.09605856239795685,0.11407908797264099,0.09392052888870239
1764544909992598500,8.7555986328125,-0.06688974797725677,-0.012828170321881771,0.07559457421302795
1764544910009397500,8.7723974609375,-0.056810468435287476,-0.05451972410082817,0.06627888232469559
1764544910026159400,8.789159423828124,-0.05955936014652252,-0.002138028386980295,0.06902777403593063
1764544910042882000,8.805882080078124,-0.07422012835741043,0.1134682223200798,0.07330382615327835
1764544910059676700,8.8226767578125,-0.0507018156349659,0.1592831164598465,0.07452555745840073
1764544910076446700,8.83944677734375,-0.008704829961061478,0.11270463466644287,0.029626963660120964
1764544910101566500,8.86456640625,-0.05421429127454758,0.010231993161141872,-0.07147123664617538
1764544910118304000,8.881303955078126,-0.156686931848526,0.0022907445672899485,-0.11545353382825851
1764544910135117300,8.898117431640625,-0.2808452844619751,0.05054909735918045,-0.10766500234603882
1764544910151867400,8.914867431640625,-0.28130343556404114,0.07757988572120667,-0.025503624230623245
1764544910168593700,8.93159375,-0.23686300218105316,0.13072516024112701,0.07788532227277756
1764544910185389300,8.948389404296876,-0.20204368233680725,0.15577064454555511,0.18325957655906677
1764544910202151700,8.965151611328125,-0.16264286637306213,0.1644754707813263,0.24663683772087097
1764544910218883300,8.98188330078125,-0.12140946835279465,0.13958270847797394,0.2356412708759308
1764544910235673300,8.99867333984375,-0.07681630551815033,0.09300423413515091,0.16982053220272064
1764544910252434700,9.0154345703125,-0.03588833287358284,0.04230241850018501,0.09239336848258972
1764544910269200600,9.03220068359375,-0.007024950347840786,0.022143865004181862,0.03145955875515938
1764544910285956900,9.048956787109375,0.02535090781748295,0.02015855349600315,0.001527163083665073
1764544910302718500,9.065718505859374,0.048105638474226,0.03940080851316452,0.003512475173920393
1764544910319436000,9.08243603515625,0.05742133408784866,0.07192938029766083,0.027183502912521362
1764544910336240400,9.099240478515625,0.05711590126156807,0.09804387390613556,0.047800205647945404
1764544910353002000,9.116001953125,0.055894169956445694,0.1082758679986,0.04260785132646561
1764544910369718300,9.13271826171875,0.055894169956445694,0.11407908797264099,0.005803219974040985
1764544910386515700,9.149515625,0.06765332818031311,0.12996158003807068,-0.05146539583802223
1764544910403285200,9.16628515625,0.07116580009460449,0.15592335164546967,-0.10965031385421753
1764544910420013000,9.183012939453125,0.09178250283002853,0.18295414745807648,-0.14278975129127502
1764544910436807700,9.1998076171875,0.1059851199388504,0.23197607696056366,-0.14294247329235077
1764544910453563000,9.21656298828125,0.13545936346054077,0.2669481039047241,-0.12217304855585098
1764544910470308400,9.233308349609375,0.14737124741077423,0.28557950258255005,-0.1062905490398407
1764544910487090700,9.250090576171875,0.15424346923828125,0.29046642780303955,-0.11392636597156525
1764544910503852500,9.2668525390625,0.1495092660188675,0.2941316068172455,-0.13148874044418335
1764544910520617000,9.283616943359375,0.1592831164598465,0.2958115041255951,-0.1469130963087082
1764544910537374200,9.300374267578125,0.1359175145626068,0.3107776939868927,-0.13790282607078552
1764544910554110700,9.31711083984375,0.1287398487329483,0.3065016269683838,-0.10567969083786011
1764544910570853600,9.333853515625,0.11148291081190109,0.2863430976867676,-0.078343465924263
1764544910587657500,9.350657470703124,0.08933904021978378,0.24236078560352325,-0.01863138936460018
1764544910604419600,9.367419677734375,0.05757404863834381,0.1846340149641037,0.048258353024721146
1764544910621141200,9.384141357421875,0.04046982154250145,0.14737124741077423,0.09437867999076843
1764544910637931000,9.400930908203126,0.04657847434282303,0.17867808043956757,0.1485929638147354
1764544910654703000,9.417703125,0.055741455405950546,0.21120665967464447,0.19074267148971558
1764544910671431000,9.434430908203124,0.07406741380691528,0.20433442294597626,0.20005837082862854
1764544910688224500,9.451224609375,0.08399397134780884,0.1609629988670349,0.18387043476104736
1764544910704989400,9.467989501953125,0.07391469180583954,0.10125091671943665,0.1281289905309677
1764544910721717000,9.484717041015625,0.05650503560900688,0.03436116874217987,0.05742133408784866
1764544910738508800,9.5015087890625,0.039095375686883926,-0.011759156361222267,0.0039706239476799965
1764544910755270100,9.518270263671875,0.021532999351620674,-0.012064588256180286,0.003359758760780096
1764544910772024800,9.53502490234375,-0.0006108652451075613,0.03039054572582245,0.04993823543190956
1764544910788797700,9.551797607421875,-0.015271631069481373,0.06261368840932846,0.0981965884566307
1764544910805554000,9.568553955078125,-0.005192354787141085,0.08078692853450775,0.0981965884566307
1764544910822297600,9.585297607421875,0.01160643994808197,0.09162978827953339,0.051770828664302826
1764544910839075300,9.602075439453126,0.02367102913558483,0.06841690838336945,-0.01970040425658226
1764544910855810800,9.618810791015624,0.026572637259960175,0.02519819140434265,-0.09117163717746735
1764544910872601300,9.635601318359376,0.04398229718208313,-0.012980886735022068,-0.15760323405265808
1764544910889350700,9.6523505859375,0.0682641938328743,-0.020616702735424042,-0.20693060755729675
1764544910906121000,9.669120849609374,0.08659014850854874,-0.012064588256180286,-0.2428189367055893
1764544910922836700,9.685836669921875,0.08994990587234497,-0.009621127508580685,-0.2874121069908142
1764544910939642600,9.702642578125,0.07849618047475815,-0.03298672288656235,-0.33460143208503723
1764544910956402700,9.719402587890626,0.07498370856046677,-0.07559457421302795,-0.35445454716682434
1764544910973127400,9.73612744140625,0.051770828664302826,-0.09575312584638596,-0.3500257730484009
1764544910989919200,9.752919189453126,0.02428189292550087,-0.10186178237199783,-0.3280346393585205
1764544911006694400,9.7696943359375,-0.010537425056099892,-0.10751228034496307,-0.3003929853439331
1764544911023445200,9.7864453125,-0.05314527451992035,-0.13011430203914642,-0.28206703066825867
1764544911040209400,9.80320947265625,-0.08918632566928864,-0.17730364203453064,-0.28680121898651123
1764544911056970800,9.819970703125,-0.12476922571659088,-0.2562579810619354,-0.3124575614929199
1764544911073752300,9.83675244140625,-0.16600263118743896,-0.3556762933731079,-0.3260493278503418
1764544911090492400,9.853492431640625,-0.21578814089298248,-0.45402559638023376,-0.3023782968521118
1764544911107254500,9.870254638671875,-0.2672535479068756,-0.5389358401298523,-0.2499966025352478
1764544911123986200,9.886986083984375,-0.3179553747177124,-0.598953366279602,-0.2054034322500229
1764544911140734500,9.903734375,-0.34926220774650574,-0.6450737118721008,-0.1771509200334549
1764544911157512400,9.920512451171875,-0.35262197256088257,-0.6586654782295227,-0.15393804013729095
1764544911174273000,9.93727294921875,-0.35292738676071167,-0.5948300361633301,-0.09575312584638596
1764544911191034400,9.954034423828125,-0.31093040108680725,-0.43615779280662537,-0.006261368747800589
1764544911207801000,9.970801025390625,-0.21594086289405823,-0.2617557644844055,0.05849034711718559
1764544911224550700,9.987550537109374,-0.11667526513338089,-0.1618792861700058,0.06719517707824707
1764544911241344300,10.00434423828125,-0.040622539818286896,-0.1739438772201538,0.02779436856508255
1764544911258105600,10.021105712890625,0.02733621932566166,-0.23579397797584534,-0.05345070734620094
1764544911274880000,10.0378798828125,0.07559457421302795,-0.3205515444278717,-0.13729196786880493
1764544911291626800,10.054626708984374,0.10506882518529892,-0.3865249752998352,-0.17806722223758698
1764544911308389000,10.07138916015625,0.12171489745378494,-0.41172316670417786,-0.16859880089759827
1764544911325149000,10.08814892578125,0.13118331134319305,-0.3962988257408142,-0.13118331134319305
1764544911341910800,10.104910888671874,0.12736541032791138,-0.36331209540367126,-0.0832303911447525
1764544911358672100,10.121672119140625,0.10308351367712021,-0.3376557528972626,-0.030543262138962746
1764544911375433200,10.13843310546875,0.0354301854968071,-0.29336804151535034,0.02015855349600315
1764544911392152000,10.155152099609374,-0.02321287989616394,-0.25702154636383057,0.08078692853450775
1764544911408956200,10.1719560546875,-0.07254024595022202,-0.21074850857257843,0.1437060534954071
1764544911425716000,10.188716064453125,-0.10125091671943665,-0.18035796284675598,0.19944749772548676
1764544911442477800,10.205477783203126,-0.10720685124397278,-0.18799377977848053,0.23747386038303375
1764544911459235300,10.2222353515625,-0.08674286305904388,-0.2171625941991806,0.2545780837535858
1764544911476004000,10.239004150390626,-0.05665775015950203,-0.25274550914764404,0.2583959996700287
1764544911492760800,10.2557607421875,-0.014049900695681572,-0.28038713335990906,0.27030786871910095
1764544911509520100,10.27252001953125,0.02474004216492176,-0.27030786871910095,0.2941316068172455
1764544911526285600,10.28928564453125,0.0377209298312664,-0.23075434565544128,0.3248275816440582
1764544911543044900,10.306044921875,0.027947084978222847,-0.19257527589797974,0.35063666105270386
1764544911559806200,10.32280615234375,0.007788531947880983,-0.1872301995754242,0.3523165285587311
1764544911576566800,10.33956689453125,-0.007024950347840786,-0.194713294506073,0.33505958318710327
1764544911593327600,10.35632763671875,-0.00015271631127689034,-0.20586158335208893,0.3168863356113434
1764544911610090200,10.37309033203125,0.036041051149368286,-0.18310685455799103,0.30604347586631775
1764544911626850000,10.38985009765625,0.09025534242391586,-0.11209376901388168,0.3013092875480652
1764544911643586800,10.4065869140625,0.13530665636062622,-0.0013744467869400978,0.30573806166648865
1764544911660373000,10.423373046875,0.16019940376281738,0.05971207842230797,0.3043636083602905
1764544911677134300,10.44013427734375,0.16035212576389313,0.024587325751781464,0.2571742534637451
1764544911693879600,10.456879638671875,0.14996741712093353,-0.046273041516542435,0.17531833052635193
1764544911710650600,10.473650634765624,0.1661553531885147,-0.07559457421302795,0.09926560521125793
1764544911727423500,10.490423583984375,0.1898263692855835,-0.09193521738052368,0.03420845419168472
1764544911744173300,10.50717333984375,0.1992947906255722,-0.12293662875890732,0.008857546374201775
1764544911760945700,10.523945556640625,0.2125810980796814,-0.1365283876657486,0.023976460099220276
1764544911777701000,10.540701171875,0.2295326143503189,-0.06780604273080826,0.05772676691412926
1764544911794462700,10.557462646484375,0.2528982162475586,0.08185594528913498,0.08949175477027893
1764544911811224600,10.574224609375,0.2831360399723053,0.22800545394420624,0.08781187981367111
1764544911827984000,10.59098388671875,0.2987131178379059,0.2935207486152649,0.050243668258190155
1764544911844746000,10.60774609375,0.2736676335334778,0.2698497176170349,-0.0012217304902151227
1764544911861507300,10.62450732421875,0.22479841113090515,0.1915062516927719,-0.05497787147760391
1764544911878268400,10.641268310546875,0.16768251359462738,0.1036943718791008,-0.07895433157682419
1764544911895018000,10.65801806640625,0.10644327104091644,0.04489859566092491,-0.07483099400997162
1764544911911791400,10.674791259765625,0.027488935738801956,0.01878410577774048,-0.04749477282166481
1764544911928551200,10.69155126953125,-0.07559457421302795,0.014813481830060482,-0.013591751456260681
1764544911945312800,10.708312744140626,-0.19104810059070587,0.007024950347840786,0.024434609338641167
1764544911962068000,10.72506787109375,-0.2799290120601654,0.013133603148162365,0.05803219974040985
1764544911978841900,10.741841796875,-0.33429601788520813,0.062460970133543015,0.08765916526317596
1764544911995596300,10.75859619140625,-0.3689626157283783,0.13454307615756989,0.09453139454126358
1764544912012358700,10.775358642578125,-0.38576140999794006,0.21319197118282318,0.0705549344420433
1764544912029118500,10.792118408203125,-0.3819434940814972,0.30054569244384766,0.03237585723400116
1764544912045880300,10.80888037109375,-0.35124751925468445,0.3862195611000061,-0.005345070734620094
1764544912062641400,10.825641357421874,-0.30024027824401855,0.45814892649650574,-0.05543602257966995
1764544912079402200,10.84240234375,-0.2557998299598694,0.4440990388393402,-0.12140946835279465
1764544912096163600,10.85916357421875,-0.22159136831760406,0.35643985867500305,-0.19914206862449646
1764544912112925400,10.875925537109374,-0.21410827338695526,0.2396118938922882,-0.26450464129447937
1764544912129685800,10.892685791015625,-0.2015855312347412,0.12431107461452484,-0.29245173931121826
1764544912146414300,10.909414306640626,-0.1875356286764145,0.040622539818286896,-0.2791654169559479
1764544912163208700,10.926208740234374,-0.194713294506073,0.012217304669320583,-0.23182335495948792
1764544912179977500,10.9429775390625,-0.20723603665828705,0.049785517156124115,-0.16768251359462738
1764544912196730600,10.959730712890625,-0.22082778811454773,0.12950342893600464,-0.1082758679986
1764544912213492700,10.97649267578125,-0.24083362519741058,0.23151792585849762,-0.07208210229873657
1764544912230259700,10.993259765625,-0.25671613216400146,0.3165809214115143,-0.058795779943466187
1764544912247008000,11.010008056640626,-0.2770273983478546,0.3617849349975586,-0.045204028487205505
1764544912263775500,11.026775390625,-0.2611449062824249,0.3205515444278717,-0.012675453908741474
1764544912280536800,11.043536865234374,-0.16890424489974976,0.2583959996700287,0.02580905705690384
1764544912297297700,11.060297607421875,-0.09285151958465576,0.19807305932044983,0.05925392732024193
1764544912314034400,11.077034423828126,-0.01542434748262167,0.17104226350784302,0.07192938029766083
1764544912330819600,11.093819580078126,0.05360342562198639,0.1661553531885147,0.061391957104206085
1764544912347582000,11.11058203125,0.09498954564332962,0.14844025671482086,0.03497203439474106
1764544912364343000,11.127343017578125,0.09926560521125793,0.10476338863372803,0.017409659922122955
1764544912381103900,11.144103759765626,0.08704829961061478,0.06688974797725677,0.02733621932566166
1764544912397854700,11.160854736328124,0.07299839705228806,0.04886921867728233,0.06322455406188965
1764544912414627000,11.177626953125,0.07925976812839508,0.05100724846124649,0.10445795953273773
1764544912431361300,11.194361328125,0.10262536257505417,0.07070764899253845,0.13897185027599335
1764544912448148700,11.211148681640625,0.13973543047904968,0.10354165732860565,0.15164729952812195
1764544912464909800,11.227909912109375,0.1817324161529541,0.13775011897087097,0.12431107461452484
1764544912481671000,11.2446708984375,0.2275473028421402,0.17119498550891876,0.07635815441608429
1764544912498431700,11.261431640625,0.2687807083129883,0.21639901399612427,0.030237829312682152
1764544912515194000,11.278194091796875,0.318566232919693,0.2477058619260788,-0.007024950347840786
1764544912531954200,11.2949541015625,0.35094207525253296,0.2874121069908142,-0.05314527451992035
1764544912548716000,11.311716064453124,0.3303253948688507,0.3446807265281677,-0.09560041129589081
1764544912565479000,11.32847900390625,0.290313720703125,0.39324450492858887,-0.13576480746269226
1764544912582236000,11.34523583984375,0.25854870676994324,0.4056145250797272,-0.14935655891895294
1764544912598999000,11.3619990234375,0.21670444309711456,0.3732386529445648,-0.14844025671482086
1764544912615761400,11.378761474609375,0.1511891484260559,0.29336804151535034,-0.11285735666751862
1764544912632521000,11.39552099609375,0.08277224004268646,0.2021963894367218,-0.07987063378095627
1764544912649245000,11.412244873046875,0.031612277030944824,0.1281289905309677,-0.04612032696604729
1764544912666044400,11.42904443359375,0.004734205547720194,0.09010262042284012,0.0039706239476799965
1764544912682784300,11.4457841796875,0.0009162978967651725,0.09208793938159943,0.06108652427792549
1764544912699566600,11.462566650390626,0.029626963660120964,0.14004085958003998,0.1189660057425499
1764544912716328400,11.479328369140624,0.07040221989154816,0.19868391752243042,0.16829337179660797
1764544912733088800,11.4960888671875,0.13087788224220276,0.22632557153701782,0.1722639948129654
1764544912749839000,11.512839111328125,0.19394971430301666,0.2142609804868698,0.1560760736465454
1764544912766622500,11.52962255859375,0.2148718535900116,0.13897185027599335,0.11010845750570297
1764544912783372800,11.546372802734375,0.1843285858631134,0.011759156361222267,0.05467243865132332
1764544912800133400,11.56313330078125,0.1569923609495163,-0.08216137439012527,0.022143865004181862
1764544912816895700,11.579895751953124,0.11392636597156525,-0.1108720451593399,0.0455094613134861
1764544912833656000,11.596656005859375,0.05345070734620094,-0.09239336848258972,0.10231992602348328
1764544912850417400,11.61341748046875,-0.004123340360820293,-0.05161811411380768,0.1287398487329483
1764544912867178000,11.630177978515626,-0.0377209298312664,-0.010842857882380486,0.08292495459318161
1764544912883939800,11.64693994140625,-0.03588833287358284,0.004123340360820293,-0.0328340083360672
1764544912900681700,11.663681640625,-0.033139441162347794,0.030237829312682152,-0.1589776873588562
1764544912917463000,11.680463134765626,-0.04001167416572571,0.06536258012056351,-0.24297164380550385
1764544912934248200,11.697248291015624,-0.03573561832308769,0.11285735666751862,-0.2921462953090668
1764544912950984700,11.713984619140625,-0.02229658141732216,0.16325373947620392,-0.34284812211990356
1764544912967745800,11.730745849609375,-0.018325956538319588,0.21090123057365417,-0.41752639412879944
1764544912984507400,11.74750732421875,-0.04214970022439957,0.24587325751781464,-0.5018258094787598
1764544913001266400,11.764266357421874,-0.09193521738052368,0.22510384023189545,-0.566119372844696
1764544913018030800,11.78103076171875,-0.15943582355976105,0.15485434234142303,-0.5874996781349182
1764544913034791000,11.797791015625,-0.20372356474399567,0.06154467165470123,-0.5464189648628235
1764544913051551700,11.8145517578125,-0.23090706765651703,-0.07162395119667053,-0.4550946056842804
1764544913068313300,11.831313232421875,-0.26282477378845215,-0.17592918872833252,-0.3617849349975586
1764544913085074400,11.848074462890626,-0.2727513313293457,-0.21013765037059784,-0.30970868468284607
1764544913101834800,11.864834716796874,-0.22250767052173615,-0.27977627515792847,-0.29565876722335815
1764544913118596600,11.8815966796875,-0.12247848510742188,-0.403323769569397,-0.3043636083602905
1764544913135358000,11.89835791015625,-0.09743300825357437,-0.4804455041885376,-0.2977968156337738
1764544913152095500,11.915095458984375,-0.14156801998615265,-0.4202753007411957,-0.23167064785957336
1764544913168880000,11.931880126953125,-0.16142113506793976,-0.25274550914764404,-0.0832303911447525
1764544913185638000,11.948637939453125,-0.1498146951198578,-0.04337143152952194,0.08017606288194656
1764544913202402000,11.965402099609374,-0.17348572611808777,0.10125091671943665,0.16523905098438263
1764544913219164400,11.982164306640625,-0.19013181328773499,0.0754418596625328,0.166460782289505
1764544913235925500,11.998925537109375,-0.17776179313659668,-0.0682641938328743,0.1134682223200798
1764544913252682500,12.0156826171875,-0.12828169763088226,-0.2347249686717987,0.048105638474226
1764544913269453800,12.032453857421874,-0.050854530185461044,-0.38728857040405273,0.0006108652451075613
1764544913286208800,12.049208740234375,0.04352414980530739,-0.4940372705459595,-0.02275473065674305
1764544913302969000,12.065968994140626,0.14294247329235077,-0.5441282391548157,-0.036041051149368286
1764544913319731500,12.0827314453125,0.21762074530124664,-0.5383250117301941,-0.04046982154250145
1764544913336492000,12.099491943359375,0.21120665967464447,-0.44745880365371704,-0.008399397134780884
1764544913353257500,12.116257568359375,0.13179416954517365,-0.2889392673969269,0.09422596544027328
1764544913370012700,12.1330126953125,0.05268712714314461,-0.164170041680336,0.2776382565498352
1764544913386778400,12.1497783203125,-0.017562376335263252,-0.10552696883678436,0.46379944682121277
1764544913403511800,12.16651171875,-0.07498370856046677,-0.1612684279680252,0.5755877494812012
1764544913420298800,12.183298828125,-0.11530081182718277,-0.3090978264808655,0.6088799238204956
1764544913437064000,12.20006396484375,-0.1437060534954071,-0.49067750573158264,0.5902485251426697
1764544913453795600,12.216795654296876,-0.15302173793315887,-0.6534730792045593,0.541532039642334
1764544913470581800,12.233581787109374,-0.14126259088516235,-0.7612907886505127,0.4827362596988678
1764544913487343400,12.25034326171875,-0.11759155988693237,-0.7672467231750488,0.44028112292289734
1764544913504098000,12.26709814453125,-0.07712173461914062,-0.7026477456092834,0.40026944875717163
1764544913520871700,12.28387158203125,-0.01771509274840355,-0.6085745096206665,0.3700316250324249
1764544913537626400,12.30062646484375,0.03298672288656235,-0.4833471179008484,0.37048977613449097
1764544913554388500,12.317388427734375,0.0705549344420433,-0.3816380500793457,0.3856086730957031
1764544913571149000,12.334149169921876,0.03481931984424591,-0.304669052362442,0.35781431198120117
1764544913587911000,12.350910888671875,-0.010079276748001575,-0.3871358633041382,0.3052799105644226
1764544913604646000,12.36764599609375,-0.029626963660120964,-0.5106833577156067,0.2509129047393799
1764544913621424600,12.384424560546876,-0.04046982154250145,-0.5977316498756409,0.19104810059070587
1764544913638201900,12.401201904296874,-0.04001167416572571,-0.5616905689239502,0.17211128771305084
1764544913654952700,12.41795263671875,-0.0009162978967651725,-0.44593164324760437,0.13790282607078552
1764544913671716600,12.434716552734375,0.029168816283345222,-0.36361753940582275,0.0682641938328743
1764544913688452400,12.451452392578124,0.03039054572582245,-0.32681289315223694,-0.006108652334660292
1764544913705238300,12.46823828125,0.02779436856508255,-0.30375275015830994,-0.055894169956445694
1764544913721994500,12.484994384765624,0.02871066704392433,-0.25961771607398987,-0.08246681094169617
1764544913738767000,12.50176708984375,0.030085112899541855,-0.13484850525856018,-0.07864890247583389
1764544913755520300,12.518520263671874,0.05467243865132332,0.06108652427792549,-0.05345070734620094
1764544913772286000,12.535285888671876,0.07773260027170181,0.19944749772548676,-0.05543602257966995
1764544913789045200,12.552045166015626,0.08307767659425735,0.22586742043495178,-0.12476922571659088
1764544913805805600,12.5688056640625,0.058795779943466187,0.16630806028842926,-0.2148718535900116
1764544913822568000,12.58556787109375,-0.025961773470044136,0.05192354694008827,-0.266184538602829
1764544913839328800,12.602328857421876,-0.15683965384960175,-0.03405573591589928,-0.2545780837535858
1764544913856094000,12.619093994140625,-0.2942843437194824,-0.03375030308961868,-0.17088955640792847
1764544913872851200,12.635851318359375,-0.42668938636779785,0.020463986322283745,-0.06154467165470123
1764544913889606100,12.652606201171874,-0.5222898125648499,0.09224065393209457,0.02275473065674305
1764544913906379300,12.669379150390625,-0.5687155723571777,0.14233160018920898,0.06872233748435974
1764544913923135000,12.686135009765625,-0.5607742667198181,0.16890424489974976,0.04581489413976669
1764544913939892200,12.702892333984375,-0.5065600275993347,0.16294831037521362,-0.00855211354792118
1764544913956646400,12.719646484375,-0.4332561790943146,0.14492778480052948,-0.07192938029766083
1764544913973422800,12.7364228515625,-0.33796119689941406,0.14156801998615265,-0.14034628868103027
1764544913990179600,12.7531796875,-0.22098049521446228,0.18295414745807648,-0.2321287989616394
1764544914006935000,12.76993505859375,-0.09896016865968704,0.21273382008075714,-0.3387247920036316
1764544914023708000,12.7867080078125,-0.0328340083360672,0.23029619455337524,-0.4115704596042633
1764544914040462800,12.803462890625,-0.039248090237379074,0.26710084080696106,-0.40393465757369995
1764544914057224200,12.82022412109375,-0.08689557760953903,0.3452915847301483,-0.31673362851142883
1764544914073960200,12.836960205078125,-0.12736541032791138,0.34865134954452515,-0.23335053026676178
1764544914090741000,12.853740966796876,-0.16584990918636322,0.2545780837535858,-0.18814650177955627
1764544914107500800,12.870500732421876,-0.2047925740480423,0.14126259088516235,-0.16233743727207184
1764544914124278300,12.8872783203125,-0.2678644061088562,0.07864890247583389,-0.12767083942890167
1764544914141029600,12.904029541015625,-0.342237263917923,0.11301007121801376,-0.10476338863372803
1764544914157777700,12.920777587890624,-0.4086688458919525,0.16982053220272064,-0.08124507963657379
1764544914174560800,12.937560791015626,-0.38866302371025085,0.1866193264722824,-0.052381694316864014
1764544914191290400,12.954290283203125,-0.31184670329093933,0.20433442294597626,-0.03329215571284294
1764544914208067600,12.971067626953126,-0.20906862616539001,0.22418753802776337,-0.02535090781748295
1764544914224843800,12.98784375,-0.10323622822761536,0.2623666226863861,-0.05009094998240471
1764544914241597400,13.004597412109375,-0.010995574295520782,0.3006984293460846,-0.10445795953273773
1764544914258353200,13.021353271484376,0.05345070734620094,0.32589662075042725,-0.16310101747512817
1764544914275127000,13.038126953125,0.08903361111879349,0.32940909266471863,-0.19349156320095062
1764544914291881700,13.0548818359375,0.07941248267889023,0.2926044464111328,-0.18631389737129211
1764544914308632600,13.071632568359375,0.04581489413976669,0.2422080636024475,-0.1388191282749176
1764544914325414100,13.0884140625,0.014508049935102463,0.23060162365436554,-0.06001751124858856
1764544914342133200,13.10513330078125,0.00809396430850029,0.2223549485206604,0.016951510682702065
1764544914358904800,13.12190478515625,0.02275473065674305,0.21273382008075714,0.06841690838336945
1764544914375657500,13.138657470703125,0.0679587572813034,0.24098633229732513,0.09315694868564606
1764544914392409000,13.1554091796875,0.12980885803699493,0.28619036078453064,0.08506298810243607
1764544914409195500,13.172195556640625,0.197004035115242,0.3312416672706604,0.04153883829712868
1764544914425977600,13.1889775390625,0.29504790902137756,0.3721696436405182,-0.028557950630784035
1764544914442744000,13.205744140625,0.34834590554237366,0.4060726761817932,-0.1082758679986
1764544914459492600,13.22249267578125,0.37690386176109314,0.42210787534713745,-0.20082195103168488
1764544914476262400,13.239262451171875,0.4121813178062439,0.4205807149410248,-0.2767219543457031
1764544914493016300,13.256016357421874,0.4153883755207062,0.4173736870288849,-0.29245173931121826
1764544914509770800,13.272770751953125,0.3675881624221802,0.455705463886261,-0.2399173229932785
1764544914526545000,13.289544921875,0.2562579810619354,0.5410739183425903,-0.1563815027475357
1764544914543299300,13.30629931640625,0.1869247704744339,0.5839871764183044,-0.06475171446800232
1764544914560051500,13.323051513671874,0.1391245573759079,0.5937610268592834,0.0003054326225537807
1764544914576831500,13.33983154296875,0.10934487730264664,0.5751296281814575,0.02474004216492176
1764544914593583600,13.35658349609375,0.10262536257505417,0.5192354321479797,0.021380282938480377
1764544914610335700,13.373335693359374,0.11789698898792267,0.437226802110672,0.053297992795705795
1764544914627114500,13.390114501953125,0.15363261103630066,0.36911532282829285,0.09315694868564606
1764544914643867100,13.4068671875,0.20876319706439972,0.32009339332580566,0.09666942805051804
1764544914660620500,13.42362060546875,0.28038713335990906,0.28359419107437134,0.08643743395805359
1764544914677397200,13.440397216796875,0.3494149148464203,0.26710084080696106,0.06673702597618103
1764544914694128600,13.457128662109374,0.39385536313056946,0.27351492643356323,0.05864306539297104
1764544914710911500,13.473911376953126,0.40026944875717163,0.2393064647912979,0.07177666574716568
1764544914727647700,13.490647705078125,0.3672827184200287,0.16325373947620392,0.1108720451593399
1764544914744434200,13.50743408203125,0.30375275015830994,0.09987647086381912,0.18341228365898132
1764544914761190000,13.52418994140625,0.23869559168815613,0.06627888232469559,0.2767219543457031
1764544914777962800,13.540962646484376,0.17348572611808777,0.04795292019844055,0.3588833212852478
1764544914794692900,13.55769287109375,0.14095716178417206,0.045204028487205505,0.37400224804878235
1764544914811470600,13.574470703125,0.1391245573759079,0.04306599870324135,0.3149010241031647
1764544914828249300,13.591249267578124,0.16249015927314758,0.06108652427792549,0.19776763021945953
1764544914845001500,13.60800146484375,0.18967366218566895,0.09773843735456467,0.06261368840932846
1764544914861755000,13.6247548828125,0.21044307947158813,0.13072516024112701,-0.05253441259264946
1764544914878531800,13.64153173828125,0.22388210892677307,0.14645494520664215,-0.14187344908714294
1764544914895285500,13.658285400390625,0.2422080636024475,0.13500121235847473,-0.1950187236070633
1764544914912039700,13.675039794921876,0.26419922709465027,0.12996158003807068,-0.20341812074184418
1764544914928815000,13.691815185546876,0.28420504927635193,0.10277807712554932,-0.17516560852527618
1764544914945540000,13.7085400390625,0.3211624026298523,0.04077525436878204,-0.13148874044418335
1764544914962327600,13.72532763671875,0.2597704529762268,-0.003054326167330146,-0.1319468915462494
1764544914979087600,13.742087646484375,0.1563815027475357,-0.037110064178705215,-0.1722639948129654
1764544914995853000,13.75885302734375,0.04077525436878204,-0.08506298810243607,-0.22708915174007416
1764544915012607500,13.775607421875,-0.061391957104206085,-0.15485434234142303,-0.26282477378845215
1764544915029382100,13.792382080078125,-0.15622878074645996,-0.2243402600288391,-0.2877175211906433
1764544915046130200,13.809130126953125,-0.23976461589336395,-0.3335324227809906,-0.2974913716316223
1764544915062904000,13.825904052734375,-0.30283644795417786,-0.43218716979026794,-0.30573806166648865
1764544915079658800,13.84265869140625,-0.3455969989299774,-0.43875396251678467,-0.318566232919693
1764544915096420600,13.859420654296875,-0.3533855378627777,-0.4082106947898865,-0.31902438402175903
1764544915113181200,13.87618115234375,-0.2945897579193115,-0.4335615932941437,-0.29077184200286865
1764544915129937200,13.892937255859374,-0.19807305932044983,-0.504574716091156,-0.24083362519741058
1764544915146710300,13.909710205078126,-0.13988813757896423,-0.5523748993873596,-0.17043140530586243
1764544915163456000,13.9264560546875,-0.14004085958003998,-0.5199990272521973,-0.07666359096765518
1764544915180235500,13.943235595703126,-0.13072516024112701,-0.42531493306159973,0.008857546374201775
1764544915196959700,13.959959716796876,-0.09514226019382477,-0.3136793076992035,0.04505131021142006
1764544915213694200,13.976694091796874,-0.06979135423898697,-0.19349156320095062,0.01466076634824276
1764544915230500600,13.99350048828125,-0.04382958263158798,-0.11911872029304504,-0.046273041516542435
1764544915247271200,14.010271240234376,-0.01771509274840355,-0.15195272862911224,-0.10873401165008545
1764544915264031700,14.02703173828125,-0.0029016099870204926,-0.2935207486152649,-0.16111570596694946
1764544915280794400,14.04379443359375,-0.014202617108821869,-0.46990808844566345,-0.19074267148971558
1764544915297549800,14.0605498046875,-0.034666601568460464,-0.5965099334716797,-0.1892155110836029
1764544915314322400,14.077322509765626,-0.03985895588994026,-0.6195700764656067,-0.13515393435955048
1764544915331078000,14.094077880859375,-0.03344487398862839,-0.5542075037956238,-0.05604688450694084
1764544915347838500,14.11083837890625,-0.010079276748001575,-0.4554000496864319,0.012064588256180286
1764544915364601300,14.127601318359375,0.012828170321881771,-0.3474296033382416,0.05864306539297104
1764544915381360400,14.1443603515625,0.013591751456260681,-0.24556782841682434,0.0835358202457428
1764544915398122800,14.161122802734376,-0.00045814894838258624,-0.1748601794242859,0.09743300825357437
1764544915414875400,14.17787548828125,-0.033139441162347794,-0.14798210561275482,0.11056660860776901
1764544915431654100,14.194654052734375,-0.04230241850018501,-0.22586742043495178,0.13607023656368256
1764544915448380400,14.21138037109375,-0.055283304303884506,-0.31413745880126953,0.16065755486488342
1764544915465159700,14.22815966796875,-0.07864890247583389,-0.3833179473876953,0.1872301995754242
1764544915481901300,14.2449013671875,-0.08781187981367111,-0.4303545653820038,0.20754146575927734
1764544915498690600,14.261690673828125,-0.08002334833145142,-0.43997567892074585,0.2054034322500229
1764544915515451100,14.278451171875,-0.07330382615327835,-0.41111230850219727,0.194713294506073
1764544915532213200,14.295213134765625,-0.0633772686123848,-0.35873061418533325,0.21151208877563477
1764544915548974600,14.311974609375,-0.04306599870324135,-0.32391130924224854,0.2344195395708084
1764544915565735000,14.32873486328125,-0.013897184282541275,-0.3376557528972626,0.2503020465373993
1764544915582495500,14.34549560546875,0.00366519158706069,-0.37629300355911255,0.26969701051712036
1764544915599263700,14.362263671875,-0.003817907767370343,-0.394008070230484,0.2713768780231476
1764544915616001300,14.379001220703126,-0.07116580009460449,-0.3393356502056122,0.2643519341945648
1764544915632791800,14.395791748046875,-0.05390885844826698,-0.39935314655303955,0.2886338233947754
1764544915649533400,14.412533447265625,-0.03222314268350601,-0.4069889783859253,0.30695977807044983
1764544915666299400,14.42929931640625,0.006261368747800589,-0.4395175576210022,0.3364340364933014
1764544915683074600,14.446074462890625,0.047800205647945404,-0.4616613984107971,0.32039880752563477
1764544915699808000,14.46280810546875,0.09147707372903824,-0.40591996908187866,0.2912299931049347
1764544915716569300,14.4795693359375,0.15225815773010254,-0.2981022298336029,0.2958115041255951
1764544915733350100,14.49635009765625,0.1892155110836029,-0.22021691501140594,0.32849279046058655
1764544915750108700,14.513108642578125,0.20402899384498596,-0.15683965384960175,0.36392298340797424
1764544915766869000,14.529868896484375,0.2223549485206604,-0.046273041516542435,0.3813326358795166
1764544915783632600,14.546632568359374,0.2600758671760559,0.11316278576850891,0.36132678389549255
1764544915800383500,14.563383544921875,0.2941316068172455,0.28878653049468994,0.29596421122550964
1764544915817162800,14.580162841796875,0.24556782841682434,0.413555771112442,0.17440202832221985
1764544915833890600,14.596890625,0.10002918541431427,0.4040873646736145,0.022449297830462456
1764544915850675700,14.61367578125,-0.054825156927108765,0.2217440903186798,-0.11621711403131485
1764544915867438000,14.63043798828125,-0.17287486791610718,-0.023365596309304237,-0.20173825323581696
1764544915884198700,14.64719873046875,-0.27947086095809937,-0.2093740701675415,-0.20754146575927734
1764544915900960000,14.6639599609375,-0.3804163336753845,-0.2617557644844055,-0.13255776464939117
1764544915917721600,14.6807216796875,-0.4560109078884125,-0.17592918872833252,-0.013286318629980087
1764544915934482200,14.697482177734376,-0.4859432876110077,-0.032681290060281754,0.1111774742603302
1764544915951234600,14.714234619140624,-0.47051894664764404,0.1417207419872284,0.19624045491218567
1764544915967993300,14.730993408203124,-0.41630467772483826,0.3179553747177124,0.2203696370124817
1764544915984747500,14.74774755859375,-0.33108896017074585,0.4885394871234894,0.18646661937236786
1764544916001527800,14.76452783203125,-0.22296582162380219,0.6139195561408997,0.10980302840471268
1764544916018284800,14.781284912109374,-0.08811730891466141,0.6777549982070923,-0.0024434609804302454
1764544916035054300,14.798054443359375,0.04886921867728233,0.5833762884140015,-0.11804971098899841
1764544916051801000,14.814801025390626,0.13637566566467285,0.34406983852386475,-0.24144448339939117
1764544916068579600,14.83157958984375,0.13530665636062622,0.07849618047475815,-0.34147366881370544
1764544916085336800,14.8483369140625,0.08460483700037003,-0.07681630551815033,-0.3724750876426697
1764544916102095400,14.865095458984374,0.00045814894838258624,-0.06704246252775192,-0.30054569244384766
1764544916118854100,14.881854248046874,-0.09056077152490616,0.08857546001672745,-0.14263702929019928
1764544916135620000,14.8986201171875,-0.17501288652420044,0.25442537665367126,0.017562376335263252
1764544916152378400,14.91537841796875,-0.23686300218105316,0.35475999116897583,0.10293079167604446
1764544916169138400,14.932138427734374,-0.251218318939209,0.3646865487098694,0.11056660860776901
1764544916185902600,14.948902587890625,-0.24816401302814484,0.30741792917251587,0.07040221989154816
1764544916202637600,14.965637451171874,-0.25641068816185,0.21013765037059784,0.02015855349600315
1764544916219392300,14.982392333984375,-0.2545780837535858,0.11438451707363129,-0.01038470957428217
1764544916236164600,14.99916455078125,-0.1547016203403473,0.07452555745840073,-0.009010262787342072
1764544916252946000,15.01594580078125,-0.0630718395113945,0.12767083942890167,0.011301007121801376
1764544916269696500,15.032696533203126,0.016951510682702065,0.21609358489513397,0.02871066704392433
1764544916286479400,15.049479248046875,0.08231408894062042,0.27000242471694946,0.028557950630784035
1764544916303228200,15.066228271484375,0.11148291081190109,0.27550023794174194,0.027947084978222847
1764544916319977000,15.08297705078125,0.1082758679986,0.25106561183929443,0.04260785132646561
1764544916336763400,15.099763427734375,0.0884227454662323,0.21380282938480377,0.06123924255371094
1764544916353507300,15.11650732421875,0.08735372871160507,0.17608191072940826,0.0754418596625328
1764544916370252800,15.133252685546875,0.11575896292924881,0.17211128771305084,0.07788532227277756
1764544916387046000,15.1500458984375,0.1508837193250656,0.18997909128665924,0.06398813426494598
1764544916403798000,15.166798095703125,0.18570303916931152,0.20922134816646576,0.028557950630784035
1764544916420517400,15.183517333984375,0.22678372263908386,0.2278527319431305,-0.025656340643763542
1764544916437329200,15.2003291015625,0.2730567753314972,0.27718010544776917,-0.07223481684923172
1764544916454055400,15.217055419921875,0.3121521472930908,0.3474296033382416,-0.09453139454126358
1764544916470798600,15.233798583984376,0.3352122902870178,0.422871470451355,-0.10613783448934555
1764544916487578000,15.250578125,0.34636059403419495,0.47219884395599365,-0.12996158003807068
1764544916504365000,15.267364990234375,0.36560285091400146,0.44654250144958496,-0.15943582355976105
1764544916521122000,15.2841220703125,0.39965859055519104,0.3836233615875244,-0.166460782289505
1764544916537892900,15.300892822265626,0.3701843321323395,0.3510948121547699,-0.15592335164546967
1764544916554642700,15.317642578125,0.2929098904132843,0.3318525552749634,-0.12996158003807068
1764544916571393000,15.33439306640625,0.2168571650981903,0.3029891550540924,-0.07437284290790558
1764544916588179000,15.351178955078124,0.20601430535316467,0.26908615231513977,0.004428773187100887
1764544916604932600,15.3679326171875,0.20693060755729675,0.24327708780765533,0.10384709388017654
1764544916621663000,15.3846630859375,0.22663100063800812,0.2574796974658966,0.2021963894367218
1764544916638462000,15.4014619140625,0.27382034063339233,0.30344730615615845,0.24434609711170197
1764544916655216400,15.41821630859375,0.328340083360672,0.36590829491615295,0.22540926933288574
1764544916671950300,15.434950439453125,0.3625485301017761,0.432645320892334,0.18875735998153687
1764544916688741400,15.451741455078125,0.36682456731796265,0.4583016633987427,0.1437060534954071
1764544916705500700,15.468500732421875,0.33246341347694397,0.4309654235839844,0.10430523753166199
1764544916722235400,15.4852353515625,0.2588541507720947,0.32589662075042725,0.07238753139972687
1764544916738998300,15.501998291015624,0.17577648162841797,0.17501288652420044,0.07223481684923172
1764544916755784200,15.5187841796875,0.09666942805051804,0.036651913076639175,0.11530081182718277
1764544916772521000,15.53552099609375,0.019394971430301666,-0.03573561832308769,0.1820378452539444
1764544916789305000,15.55230517578125,-0.05360342562198639,-0.038179077208042145,0.24404066801071167
1764544916806069500,15.569069580078125,-0.07147123664617538,-0.005345070734620094,0.275958389043808
1764544916822790100,15.5857900390625,-0.049785517156124115,0.04337143152952194,0.2600758671760559
1764544916839598600,15.6025986328125,-0.016493361443281174,0.0936150997877121,0.21395555138587952
1764544916856355000,15.61935498046875,0.026419922709465027,0.14095716178417206,0.1739438772201538
1764544916873076500,15.636076416015625,0.06780604273080826,0.18219055235385895,0.13484850525856018
1764544916889879000,15.652879150390625,0.1059851199388504,0.19547687470912933,0.08659014850854874
1764544916906642200,15.66964208984375,0.12721268832683563,0.18188512325286865,0.013591751456260681
1764544916923362300,15.6863623046875,0.13347405195236206,0.16065755486488342,-0.07162395119667053
1764544916940165000,15.7031650390625,0.12064588814973831,0.14553864300251007,-0.1492038369178772
1764544916956923000,15.7199228515625,0.09896016865968704,0.11835514008998871,-0.20128010213375092
1764544916973654800,15.73665478515625,0.06582073122262955,0.1010981947183609,-0.23487769067287445
1764544916990444000,15.753444091796876,0.022602014243602753,0.11392636597156525,-0.2597704529762268
1764544917007203300,15.770203369140624,-0.017867809161543846,0.1595885455608368,-0.2756529450416565
1764544917023988700,15.78698876953125,-0.07223481684923172,0.2070833146572113,-0.31932979822158813
1764544917040727000,15.80372705078125,-0.13530665636062622,0.15515977144241333,-0.41661009192466736
1764544917057486800,15.82048681640625,-0.21380282938480377,0.029016099870204926,-0.5357288122177124
1764544917074222300,15.837222412109375,-0.31123584508895874,-0.12079860270023346,-0.6356052756309509
1764544917091003600,15.854003662109376,-0.4027129113674164,-0.2961169183254242,-0.7012733221054077
1764544917107777500,15.870777587890625,-0.46013423800468445,-0.479834645986557,-0.7057020664215088
1764544917124506400,15.88750634765625,-0.4737260043621063,-0.6508769392967224,-0.6609562039375305
1764544917141292000,15.9042919921875,-0.4944954216480255,-0.7220427393913269,-0.5859724879264832
1764544917158055700,15.9210556640625,-0.4395175576210022,-0.7040221691131592,-0.48059824109077454
1764544917174826200,15.937826171875,-0.2977968156337738,-0.603076696395874,-0.32330042123794556
1764544917191577000,15.9545771484375,-0.16203200817108154,-0.4437935948371887,-0.14263702929019928
1764544917208345300,15.971345458984375,-0.09941831976175308,-0.30085113644599915,-0.02122756652534008
1764544917225108000,15.98810791015625,-0.045204028487205505,-0.23350323736667633,0.013591751456260681
1764544917241875200,16.004875244140624,0.01725694350898266,-0.2298380434513092,-0.029168816283345222
1764544917258628000,16.021628173828127,0.015118914656341076,-0.2710714638233185,-0.15515977144241333
1764544917275362000,16.038362060546874,-0.027183502912521362,-0.3605632185935974,-0.2718350291252136
1764544917292144400,16.055144287109375,-0.04566217586398125,-0.4804455041885376,-0.3263547718524933
1764544917308906000,16.071906005859375,-0.055894169956445694,-0.5737552046775818,-0.32330042123794556
1764544917325663200,16.088663330078123,-0.03420845419168472,-0.6345362663269043,-0.26679539680480957
1764544917342428000,16.105427978515625,-0.005955935921519995,-0.6551529765129089,-0.16982053220272064
1764544917359195000,16.12219482421875,0.018325956538319588,-0.6551529765129089,-0.05711590126156807
1764544917375950000,16.1389501953125,0.02229658141732216,-0.6298020482063293,0.054367005825042725
1764544917392714000,16.1557138671875,-0.02122756652534008,-0.5009095072746277,0.13377949595451355
1764544917409472500,16.172472412109375,-0.07620543986558914,-0.3880521357059479,0.2119702398777008
1764544917426233300,16.1892333984375,-0.11453723162412643,-0.33460143208503723,0.2741257846355438
1764544917442989600,16.205989501953123,-0.14844025671482086,-0.327729195356369,0.31184670329093933
1764544917459763500,16.222763427734375,-0.1794416606426239,-0.3396410644054413,0.31810808181762695
1764544917476507400,16.23950732421875,-0.2278527319431305,-0.3744603991508484,0.2838996350765228
1764544917493260500,16.256260498046874,-0.23151792585849762,-0.5076290369033813,0.24755313992500305
1764544917510043400,16.27304345703125,-0.19975294172763824,-0.6397286057472229,0.242513507604599
1764544917526775800,16.28977587890625,-0.1586722433567047,-0.7411322593688965,0.2863430976867676
1764544917543534000,16.3065341796875,-0.1238529309630394,-0.7751879692077637,0.37308594584465027
1764544917560299800,16.3232998046875,-0.09896016865968704,-0.7040221691131592,0.48029279708862305
1764544917577084700,16.340084716796873,-0.04398229718208313,-0.5775730609893799,0.5656611919403076
1764544917593801700,16.3568017578125,0.02229658141732216,-0.4662429094314575,0.5707008838653564
1764544917610574600,16.37357470703125,0.07987063378095627,-0.38377609848976135,0.49495357275009155
1764544917627327200,16.3903271484375,0.11438451707363129,-0.33399057388305664,0.37720927596092224
1764544917644141600,16.4071416015625,0.1472185254096985,-0.2756529450416565,0.2793181240558624
1764544917660892700,16.423892578125,0.18646661937236786,-0.19853121042251587,0.23197607696056366
1764544917677617700,16.44061767578125,0.20326541364192963,-0.17470745742321014,0.18875735998153687
1764544917694422300,16.45742236328125,0.19135354459285736,-0.194713294506073,0.11468994617462158
1764544917711177000,16.474177001953127,0.18249599635601044,-0.2275473028421402,0.02932153269648552
1764544917727883300,16.49088330078125,0.20128010213375092,-0.2070833146572113,-0.046731192618608475
1764544917744677600,16.507677734375,0.27320948243141174,-0.0907134860754013,-0.08384125679731369
1764544917761466400,16.52446630859375,0.328340083360672,0.07727445662021637,-0.07238753139972687
1764544917786608400,16.5496083984375,0.26053401827812195,0.22220222651958466,-0.0630718395113945
1764544917803347500,16.566347412109376,0.17256943881511688,0.1892155110836029,-0.1082758679986
1764544917820126000,16.5831259765625,0.07757988572120667,0.08689557760953903,-0.1866193264722824
1764544917836885800,16.5998857421875,-0.03237585723400116,-0.02519819140434265,-0.23411411046981812
1764544917853622300,16.616622314453124,-0.15286903083324432,-0.08139779418706894,-0.1837177276611328
1764544917870408700,16.63340869140625,-0.26969701051712036,-0.04749477282166481,-0.05543602257966995
1764544917887128600,16.650128662109374,-0.37201693654060364,0.025961773470044136,0.07422012835741043
1764544917903910100,16.66691015625,-0.4314235746860504,0.08475755155086517,0.15042556822299957
1764544917920679200,16.68367919921875,-0.4444044530391693,0.1595885455608368,0.16752979159355164
1764544917937455400,16.700455322265626,-0.4308127164840698,0.24190263450145721,0.15592335164546967
1764544917954178800,16.7171787109375,-0.4164573848247528,0.2814561724662781,0.1160643994808197
1764544917970988000,16.733988037109373,-0.37751471996307373,0.2638937830924988,0.04444044828414917
1764544917987737900,16.75073779296875,-0.28206703066825867,0.19822576642036438,-0.04963280260562897
1764544918004466200,16.767466064453124,-0.18005253374576569,0.17730364203453064,-0.1722639948129654
1764544918021267200,16.78426708984375,-0.12461651116609573,0.15913039445877075,-0.2791654169559479
1764544918038025200,16.801025146484374,-0.13897185027599335,0.12324206531047821,-0.30772337317466736
1764544918054760400,16.817760498046876,-0.2093740701675415,0.12690725922584534,-0.2590068578720093
1764544918071534000,16.8345341796875,-0.2687807083129883,0.18295414745807648,-0.18646661937236786
1764544918088312800,16.851312744140625,-0.2756529450416565,0.21823160350322723,-0.09208793938159943
1764544918105076500,16.868076416015626,-0.2886338233947754,0.24923302233219147,-0.0009162978967651725
1764544918121832700,16.884832763671874,-0.3191770911216736,0.28420504927635193,0.06123924255371094
1764544918138557000,16.901556884765625,-0.3523165285587311,0.29596421122550964,0.062460970133543015
1764544918155353000,16.91835302734375,-0.37720927596092224,0.27718010544776917,0.017867809161543846
1764544918172086000,16.9350859375,-0.32498031854629517,0.21105393767356873,-0.021074850112199783
1764544918188878600,16.951878662109376,-0.17852537333965302,0.1973094791173935,-0.02229658141732216
1764544918205617700,16.96861767578125,-0.01710422709584236,0.2379320114850998,0.0065668015740811825
1764544918222395400,16.9853955078125,0.13240504264831543,0.29336804151535034,0.016798794269561768
1764544918239157500,17.002157470703125,0.2574796974658966,0.35705074667930603,-0.011301007121801376
1764544918255883500,17.018883544921874,0.33246341347694397,0.41920626163482666,-0.050243668258190155
1764544918272678100,17.03567822265625,0.35094207525253296,0.46593746542930603,-0.06520986557006836
1764544918289443000,17.052443115234375,0.32971450686454773,0.4841107130050659,-0.051312681287527084
1764544918306196200,17.0691962890625,0.34636059403419495,0.432645320892334,-0.020005837082862854
1764544918322953500,17.085953369140626,0.3052799105644226,0.39614611864089966,0.0032070425804704428
1764544918339734800,17.10273486328125,0.2528982162475586,0.3295617997646332,0.02275473065674305
1764544918356462300,17.11946240234375,0.20906862616539001,0.25793784856796265,0.028405234217643738
1764544918373247000,17.1362470703125,0.21059578657150269,0.21914790570735931,0.01466076634824276
1764544918389984800,17.15298486328125,0.23945917189121246,0.2557998299598694,-0.012675453908741474
1764544918406751700,17.169751708984375,0.28420504927635193,0.3585779070854187,-0.041691552847623825
1764544918423506200,17.186506103515626,0.34162637591362,0.4827362596988678,-0.07116580009460449
1764544918440292600,17.203292724609376,0.39156460762023926,0.5589417219161987,-0.10567969083786011
1764544918457028600,17.220028564453123,0.4202753007411957,0.5587889552116394,-0.14065171778202057
1764544918473783800,17.23678369140625,0.503963828086853,0.5177083015441895,-0.06200282275676727
1764544918490582300,17.253582275390624,0.6157521605491638,0.8341364860534668,0.1774563491344452
1764544918507315500,17.2703154296875,0.32788193225860596,0.5801692605018616,-0.012522737495601177
1764544918524099000,17.28709912109375,0.16829337179660797,0.16432274878025055,-0.22876903414726257
1764544918540860700,17.303860595703124,0.10980302840471268,0.11713340878486633,-0.07971791177988052
1764544918557630000,17.3206298828125,0.07101308554410934,0.2028072625398636,0.12140946835279465
1764544918574357500,17.337357421875,0.06017022579908371,0.2710714638233185,0.2002110779285431
1764544918591143700,17.354143798828126,0.042760565876960754,0.2964223623275757,0.17623461782932281
1764544918607921700,17.370921630859375,0.06582073122262955,0.3914119005203247,0.1215621829032898
1764544918624667100,17.387667236328124,0.06933320313692093,0.4262312352657318,0.07024950534105301
1764544918641387800,17.4043876953125,0.0455094613134861,0.43829581141471863,0.04260785132646561
1764544918658182100,17.42118212890625,0.01191187184303999,0.39538252353668213,0.04260785132646561
1764544918674930400,17.437930419921877,0.04489859566092491,0.14645494520664215,0.03756821155548096
1764544918691712000,17.4547119140625,0.09407325088977814,-0.06872233748435974,-0.027488935738801956
1764544918708447500,17.471447509765625,0.09269879758358002,-0.15454891324043274,-0.08414668589830399
1764544918725234000,17.48823388671875,-0.04001167416572571,-0.10842858254909515,-0.06658431142568588
1764544918741990000,17.504989990234375,-0.21303924918174744,-0.04260785132646561,-0.10094548016786575
1764544918758761500,17.521761474609374,-0.1511891484260559,-0.0019853119738399982,-0.11362093687057495
1764544918775512000,17.538511962890624,-0.1010981947183609,0.10048733651638031,-0.08735372871160507
1764544918792286200,17.5552861328125,-0.06505715101957321,0.19822576642036438,-0.07452555745840073
1764544918809016000,17.57201611328125,-0.0032070425804704428,0.2580905556678772,-0.12599095702171326
1764544918825805800,17.588805908203124,0.03191770985722542,0.32391130924224854,-0.3614795207977295
1764544918842565000,17.605565185546876,-0.07895433157682419,0.12400564551353455,-0.4703662395477295
1764544918859287800,17.622287841796876,-0.1612684279680252,-0.14004085958003998,-0.5354233980178833
1764544918876086300,17.639086181640625,-0.2643519341945648,-0.2125810980796814,-0.6507241725921631
1764544918892820700,17.65582080078125,-0.36819902062416077,-0.3933972120285034,-0.6094908118247986
1764544918909596700,17.6725966796875,-0.37629300355911255,-0.4761694669723511,-0.6902777552604675
1764544918926348500,17.6893486328125,-0.4132503271102905,-0.6597344875335693,-0.6082690954208374
1764544918943131400,17.70613134765625,-0.46334129571914673,-0.7455610036849976,-0.37888917326927185
1764544918959868700,17.72286865234375,-0.3576616048812866,-0.7228062748908997,-0.19135354459285736
1764544918976652000,17.739652099609376,-0.1748601794242859,-0.669355571269989,-0.014508049935102463
1764544918993409300,17.7564091796875,-0.15531249344348907,-0.5053382515907288,0.1771509200334549
1764544919010164500,17.77316455078125,-0.16019940376281738,-0.28359419107437134,0.3497203588485718
1764544919026912300,17.789912353515625,-0.10186178237199783,-0.052839845418930054,0.43157628178596497
1764544919043693000,17.806693115234374,-0.017867809161543846,0.0731511116027832,0.32330042123794556
1764544919060441000,17.823441162109376,0.014508049935102463,0.06505715101957321,0.011759156361222267
1764544919077216000,17.840216064453124,-0.0007635815418325365,-0.11224649101495743,-0.3039054572582245
1764544919093963500,17.856963623046877,-0.02382374368607998,-0.3309362530708313,-0.5177083015441895
1764544919110718700,17.87371875,-0.01817324012517929,-0.5018258094787598,-0.5476406812667847
1764544919127505400,17.89050537109375,0.016035212203860283,-0.5878050923347473,-0.3900374472141266
1764544919144249300,17.907249267578123,0.07284568250179291,-0.608421802520752,-0.17699819803237915
1764544919161005000,17.924005126953126,0.1014036312699318,-0.6018549799919128,0.016493361443281174
1764544919177763800,17.940763916015626,0.05910121276974678,-0.5279402732849121,0.12308934330940247
1764544919194550800,17.95755078125,0.011759156361222267,-0.38377609848976135,0.17379115521907806
1764544919211289000,17.9742890625,-0.012064588256180286,-0.19792033731937408,0.20128010213375092
1764544919228073500,17.991073486328126,-0.016035212203860283,-0.062460970133543015,0.2145664244890213
1764544919244825600,18.00782568359375,-0.03573561832308769,-0.014966198243200779,0.2370157092809677
1764544919261579300,18.024579345703124,-0.06658431142568588,-0.03588833287358284,0.2611449062824249
1764544919278357500,18.041357421875,-0.09224065393209457,-0.17073683440685272,0.266642689704895
1764544919295118800,18.058118896484373,-0.12400564551353455,-0.3462078869342804,0.24587325751781464
1764544919311905500,18.074905517578124,-0.13836097717285156,-0.4992296099662781,0.23609942197799683
1764544919328641300,18.091641357421874,-0.10537425428628922,-0.617584764957428,0.2577851414680481
1764544919345403000,18.10840283203125,-0.042760565876960754,-0.6386595964431763,0.2857322096824646
1764544919362186200,18.125186279296877,-0.06017022579908371,-0.46761733293533325,0.31184670329093933
1764544919378925000,18.141925048828124,-0.00366519158706069,-0.33368512988090515,0.3845396637916565
1764544919395660800,18.158660888671875,0.058795779943466187,-0.19532416760921478,0.42638394236564636
1764544919412463600,18.175463623046873,0.07360926270484924,-0.11682797968387604,0.385303258895874
1764544919429184800,18.192184814453125,0.05619960278272629,-0.21502456068992615,0.2695443034172058
1764544919445970400,18.208970458984375,0.02367102913558483,-0.37659841775894165,0.15363261103630066
1764544919462726100,18.22572607421875,0.03084869496524334,-0.41722095012664795,0.12171489745378494
1764544919479499300,18.242499267578125,0.06765332818031311,-0.3761402666568756,0.14263702929019928
1764544919496252000,18.259251953125,0.08704829961061478,-0.33108896017074585,0.12553280591964722
1764544919513005600,18.276005615234375,0.10201449692249298,-0.28817567229270935,0.07864890247583389
1764544919529770800,18.292770751953125,0.13607023656368256,-0.2145664244890213,0.02275473065674305
1764544919546545000,18.309544921875,0.2041817009449005,-0.060933809727430344,-0.012828170321881771
1764544919563299300,18.32629931640625,0.31413745880126953,0.11774427443742752,-0.010842857882380486
1764544919580061000,18.34306103515625,0.34162637591362,0.244804248213768,-0.005803219974040985
1764544919596820500,18.359820556640624,0.2929098904132843,0.280539870262146,-0.01542434748262167
1764544919613583000,18.3765830078125,0.19654589891433716,0.1492038369178772,-0.029474247246980667
1764544919630345700,18.393345703125,0.046731192618608475,-0.051312681287527084,-0.06750060617923737
1764544919655493600,18.41849365234375,-0.18829920887947083,-0.2015855312347412,-0.09407325088977814
1764544919672248000,18.435248046875,-0.32131510972976685,-0.1745547503232956,-0.031001411378383636
1764544919689009200,18.452009033203126,-0.41431936621665955,-0.10293079167604446,0.07819075137376785
1764544919705770500,18.4687705078125,-0.4957171380519867,0.004581489134579897,0.1667662113904953
1764544919722531600,18.485531494140623,-0.46441030502319336,0.11789698898792267,0.19578230381011963
1764544919739293700,18.502293701171876,-0.41920626163482666,0.1869247704744339,0.19944749772548676
1764544919756055000,18.519054931640625,-0.4103487432003021,0.18875735998153687,0.1518000066280365
1764544919772813600,18.5358134765625,-0.3604104816913605,0.16462817788124084,0.04535674303770065
1764544919789541600,18.552541748046874,-0.3032945990562439,0.10674870014190674,0.03191770985722542
1764544919806338800,18.5693388671875,-0.19456058740615845,0.1820378452539444,0.01771509274840355
1764544919823083000,18.5860830078125,-0.07910704612731934,0.19257527589797974,0.028557950630784035
1764544919839839500,18.602839599609375,0.016798794269561768,0.2054034322500229,0.04260785132646561
1764544919856624000,18.6196240234375,0.08628471940755844,0.13148874044418335,0.08796459436416626
1764544919873384000,18.636384033203125,0.07666359096765518,0.144622340798378,0.11453723162412643
1764544919890134500,18.653134521484375,0.05314527451992035,0.1495092660188675,0.15714508295059204
1764544919906903800,18.66990380859375,0.025045474991202354,0.07422012835741043,0.2119702398777008
1764544919923668200,18.686668212890623,-0.04337143152952194,0.08949175477027893,0.22082778811454773
1764544919940392700,18.703392822265624,-0.12476922571659088,0.1615738570690155,0.18738290667533875
1764544919957190400,18.7201904296875,-0.21273382008075714,0.1963931769132614,0.14416420459747314
1764544919973926400,18.736926513671875,-0.26572638750076294,0.21013765037059784,0.13484850525856018
1764544919990672400,18.75367236328125,-0.23411411046981812,0.14905111491680145,0.1598939746618271
1764544920007473700,18.7704736328125,-0.1635591685771942,0.13790282607078552,0.18509216606616974
1764544920024236500,18.787236572265623,-0.0555887371301651,0.13439035415649414,0.19654589891433716
1764544920040951600,18.80395166015625,0.025656340643763542,0.18478673696517944,0.1892155110836029
1764544920057758500,18.820758544921876,0.10552696883678436,0.27779096364974976,0.13408492505550385
1764544920074518800,18.837518798828125,0.15027284622192383,0.32162055373191833,0.048716504126787186
1764544920091264000,18.854263916015626,0.14217889308929443,0.30711251497268677,-0.036193765699863434
1764544920108041700,18.871041748046874,0.08460483700037003,0.20830504596233368,-0.10201449692249298
1764544920124804000,18.88780419921875,0.003817907767370343,0.12293662875890732,-0.154396191239357
1764544920141532000,18.904531982421876,-0.04382958263158798,0.09407325088977814,-0.1612684279680252
1764544920158335000,18.9213349609375,-0.05543602257966995,0.08979719132184982,-0.12858712673187256
1764544920175087600,18.938087646484377,-0.04886921867728233,0.11239920556545258,-0.09193521738052368
1764544920191820300,18.9548203125,-0.013744467869400978,0.16539175808429718,-0.0757472887635231
1764544920208610000,18.971610107421874,0.06169738993048668,0.18555031716823578,-0.06750060617923737
1764544920225372200,18.9883720703125,0.1134682223200798,0.1791362315416336,-0.06994406878948212
1764544920242097700,19.00509765625,0.1459967941045761,0.28756481409072876,-0.11071932315826416
1764544920258894800,19.021894775390624,0.20326541364192963,0.42302417755126953,-0.16401731967926025
1764544920275655200,19.0386552734375,0.21930062770843506,0.4999932050704956,-0.1823432743549347
1764544920292408600,19.05540869140625,0.23273965716362,0.5360342264175415,-0.18127426505088806
1764544920309178000,19.07217822265625,0.2451096773147583,0.526107668876648,-0.17073683440685272
1764544920325914000,19.0889140625,0.2344195395708084,0.4584543704986572,-0.16004669666290283
1764544920342656500,19.105656494140625,0.2590068578720093,0.3562871515750885,-0.15134187042713165
1764544920359456300,19.122456298828126,0.21471913158893585,0.3338378667831421,-0.13148874044418335
1764544920376229400,19.1392294921875,0.19746218621730804,0.3228422701358795,-0.08949175477027893
1764544920392983000,19.155983154296877,0.22892175614833832,0.37980547547340393,-0.014508049935102463
1764544920409747200,19.172747314453126,0.2692388594150543,0.44974952936172485,0.06368270516395569
1764544920426514200,19.18951416015625,0.3075706362724304,0.4905247986316681,0.10735956579446793
1764544920443266600,19.2062666015625,0.3387247920036316,0.5203045010566711,0.12034045159816742
1764544920460030500,19.223030517578124,0.38209620118141174,0.5455026626586914,0.09773843735456467
1764544920476788200,19.239788330078124,0.39996400475502014,0.5461135506629944,0.05268712714314461
1764544920493525200,19.256525146484375,0.3773620128631592,0.49617528915405273,0.01878410577774048
1764544920510314000,19.27331396484375,0.29565876722335815,0.4069889783859253,-0.013897184282541275
1764544920527075300,19.290075439453126,0.1768454909324646,0.23747386038303375,-0.03695734590291977
1764544920543804700,19.3068046875,0.03695734590291977,-0.001679879380390048,-0.01542434748262167
1764544920560596700,19.3235966796875,-0.09468411654233932,-0.17562375962734222,0.0633772686123848
1764544920577341000,19.3403408203125,-0.1693623960018158,-0.2554943859577179,0.16279558837413788
1764544920594102300,19.357102294921877,-0.19883663952350616,-0.2474004179239273,0.23396138846874237
1764544920610882000,19.373882080078126,-0.20372356474399567,-0.1371392458677292,0.2845104932785034
1764544920627643100,19.39064306640625,-0.17547103762626648,-0.018478672951459885,0.3205515444278717
1764544920644363800,19.40736376953125,-0.10231992602348328,0.0633772686123848,0.303600013256073
1764544920661172700,19.4241728515625,-0.009926560334861279,0.12263119965791702,0.22586742043495178
1764544920677926700,19.4409267578125,0.0910189226269722,0.1569923609495163,0.12461651116609573
1764544920694653700,19.45765380859375,0.17287486791610718,0.21242839097976685,0.03634648025035858
1764544920711449900,19.474449951171874,0.23273965716362,0.28359419107437134,-0.03878994286060333
1764544920728211200,19.491211181640626,0.26450464129447937,0.3240640163421631,-0.10583240538835526
1764544920744940000,19.50793994140625,0.26343563199043274,0.2935207486152649,-0.1748601794242859
1764544920761709000,19.524708984375,0.194713294506073,0.17012597620487213,-0.22403483092784882
1764544920778469400,19.541469482421874,0.014355333521962166,0.01542434748262167,-0.27320948243141174
1764544920795228200,19.558228271484374,-0.1598939746618271,-0.1644754707813263,-0.33429601788520813
1764544920812006400,19.57500634765625,-0.24785856902599335,-0.33597588539123535,-0.3553708493709564
1764544920828740600,19.59174072265625,-0.24587325751781464,-0.4363104999065399,-0.3019201457500458
1764544920845529000,19.608529052734376,-0.2194533348083496,-0.45524731278419495,-0.22296582162380219
1764544920862277000,19.625277099609374,-0.20433442294597626,-0.4476115107536316,-0.20723603665828705
1764544920879023000,19.642023193359375,-0.1849394589662552,-0.47280970215797424,-0.24297164380550385
1764544920895802400,19.65880224609375,-0.1511891484260559,-0.5146539807319641,-0.25244006514549255
1764544920912574700,19.67557470703125,-0.10735956579446793,-0.5398521423339844,-0.18585574626922607
1764544920929335300,19.692335205078123,-0.034666601568460464,-0.5300782918930054,-0.061391957104206085
1764544920946082800,19.709082763671876,0.07330382615327835,-0.4631885588169098,0.08994990587234497
1764544920962870500,19.72587060546875,0.1647808998823166,-0.3289509415626526,0.20525072515010834
1764544920979631600,19.742631591796876,0.1560760736465454,-0.20402899384498596,0.2301434874534607
1764544920996384500,19.759384521484375,0.1365283876657486,-0.18112154304981232,0.16722436249256134
1764544921013147400,19.7761474609375,0.1108720451593399,-0.27351492643356323,0.05497787147760391
1764544921029916200,19.792916259765626,0.08933904021978378,-0.3978259861469269,-0.06979135423898697
1764544921055062800,19.818062744140626,0.03726277872920036,-0.4882340431213379,-0.2194533348083496
1764544921071810000,19.83481005859375,0.00733038317412138,-0.4703662395477295,-0.2765692472457886
1764544921088580000,19.851580078125,-0.009468411095440388,-0.45784351229667664,-0.27122417092323303
1764544921105341700,19.868341796875,-0.015577063895761967,-0.46792277693748474,-0.21533000469207764
1764544921122106600,19.885106689453124,-0.024129176512360573,-0.48288896679878235,-0.14324790239334106
1764544921138864000,19.901864013671876,-0.07696902006864548,-0.41859540343284607,-0.10201449692249298
1764544921155625700,19.918625732421877,-0.13775011897087097,-0.32879820466041565,-0.06368270516395569
1764544921172384000,19.935384033203125,-0.14966198801994324,-0.29184088110923767,0.004734205547720194
1764544921189120000,19.9521201171875,-0.11942415684461594,-0.26053401827812195,0.08292495459318161
1764544921205916000,19.968916015625,-0.06994406878948212,-0.29077184200286865,0.15134187042713165
1764544921222634000,19.985634033203127,-0.04382958263158798,-0.3197879493236542,0.18906278908252716
1764544921239432700,20.0024326171875,-0.04444044828414917,-0.2964223623275757,0.2200642079114914
1764544921256193000,20.019193115234376,-0.05054909735918045,-0.2678644061088562,0.23625212907791138
1764544921272929300,20.03592919921875,-0.060933809727430344,-0.265573650598526,0.23319780826568604
1764544921289710000,20.0527099609375,-0.07024950534105301,-0.3130684494972229,0.20234911143779755
1764544921306484200,20.069484130859376,-0.07498370856046677,-0.3706424832344055,0.1537853181362152
1764544921323204000,20.0862041015625,-0.06398813426494598,-0.4245513379573822,0.12690725922584534
1764544921340000300,20.103000244140624,-0.03649919852614403,-0.43157628178596497,0.1339322030544281
1764544921356761900,20.119761962890625,0.007788531947880983,-0.3484986126422882,0.18310685455799103
1764544921373498000,20.136498046875,0.06276640295982361,-0.19486601650714874,0.2590068578720093
1764544921390284300,20.1532841796875,0.10491610318422318,-0.06398813426494598,0.2932153046131134
1764544921407046000,20.1700458984375,0.11560624837875366,-0.026572637259960175,0.2535090744495392
1764544921423780600,20.186780517578125,0.10430523753166199,-0.08048149943351746,0.1791362315416336
1764544921440543200,20.203543212890626,0.0959058403968811,-0.15347988903522491,0.11148291081190109
1764544921457329700,20.22032958984375,0.11209376901388168,-0.14385876059532166,0.08994990587234497
1764544921474065000,20.23706494140625,0.17501288652420044,-0.12736541032791138,0.07880161702632904
1764544921490852400,20.253852294921874,0.2041817009449005,-0.14034628868103027,0.05192354694008827
1764544921507613700,20.27061376953125,0.21533000469207764,-0.1469130963087082,0.02015855349600315
1764544921524348400,20.287348388671877,0.2370157092809677,-0.10033461451530457,-0.001527163083665073
1764544921541127200,20.304127197265625,0.2548835277557373,0.03130684420466423,0.003359758760780096
1764544921557907000,20.320906982421874,0.28955012559890747,0.15882496535778046,0.03894266113638878
1764544921574636300,20.33763623046875,0.28649580478668213,0.2246456891298294,0.07284568250179291
1764544921591420000,20.354419921875,0.2814561724662781,0.2099849283695221,0.07727445662021637
1764544921608181800,20.371181640625,0.26343563199043274,0.128434419631958,0.03787364438176155
1764544921624917000,20.3879169921875,0.23167064785957336,0.015882495790719986,-0.009926560334861279
1764544921641704700,20.40470458984375,0.18341228365898132,-0.06001751124858856,-0.04138612002134323
1764544921658465500,20.421465576171876,0.1085812970995903,-0.0858265683054924,-0.051770828664302826
1764544921675201000,20.438200927734375,0.06627888232469559,-0.08017606288194656,-0.013286318629980087
1764544921691988200,20.45498828125,0.021074850112199783,-0.059864792972803116,0.06688974797725677
1764544921708750000,20.47175,-0.018020525574684143,-0.030085112899541855,0.14614951610565186
1764544921725490700,20.48849072265625,-0.06001751124858856,0.025045474991202354,0.19318613409996033
1764544921742272500,20.5052724609375,-0.1036943718791008,0.07467827945947647,0.20433442294597626
1764544921759034000,20.5220341796875,-0.14584407210350037,0.10613783448934555,0.18555031716823578
1764544921775770600,20.5387705078125,-0.17592918872833252,0.1160643994808197,0.16859880089759827
1764544921792552400,20.555552490234376,-0.20005837082862854,0.12370020896196365,0.20525072515010834
1764544921809322000,20.572322021484375,-0.24572055041790009,0.17730364203453064,0.21212296187877655
1764544921826053000,20.58905322265625,-0.290313720703125,0.24419337511062622,0.20784689486026764
1764544921842840600,20.605840576171875,-0.3318525552749634,0.2638937830924988,0.1716531366109848
1764544921859601400,20.622601318359376,-0.3620903789997101,0.23640485107898712,0.12522737681865692
1764544921876337000,20.6393369140625,-0.3827070891857147,0.19196440279483795,0.10690141469240189
1764544921893124900,20.656124755859373,-0.3929390609264374,0.16951510310173035,0.10399980843067169
1764544921909880000,20.672880126953125,-0.39477166533470154,0.16172657907009125,0.07941248267889023
1764544921926627000,20.689626953125,-0.35705074667930603,0.12247848510742188,0.020311269909143448
1764544921943383000,20.706383056640625,-0.3136793076992035,0.07788532227277756,-0.042760565876960754
1764544921960169700,20.723169677734376,-0.2571742534637451,0.05115996301174164,-0.078343465924263
1764544921976929000,20.739928955078124,-0.2102903574705124,0.06994406878948212,-0.08200865983963013
1764544921993692400,20.7566923828125,-0.18112154304981232,0.09086620807647705,-0.0656680166721344
1764544922010421000,20.7734208984375,-0.17867808043956757,0.13011430203914642,-0.042760565876960754
1764544922027208700,20.790208740234377,-0.19013181328773499,0.19578230381011963,-0.007177666760981083
