time,seconds_elapsed,z,y,x
1764544901364090000,0.127090087890625,-0.04688390716910362,0.006719517521560192,-0.08384125679731369
1764544901381212400,0.14421240234375,-0.1007927656173706,-0.016035212203860283,-0.05406157299876213
1764544901398334500,0.16133447265625,-0.15164729952812195,0.05467243865132332,-0.10735956579446793
1764544901415426800,0.1784267578125,-0.16951510310173035,0.06704246252775192,-0.15714508295059204
1764544901432522000,0.19552197265625,-0.04505131021142006,0.14355333149433136,-0.07956519722938538
1764544901449606000,0.21260595703125,0.24404066801071167,0.3208569586277008,0.15836681425571442
1764544901466701600,0.22970166015625,0.6279694437980652,0.6325509548187256,0.3770565688610077
1764544901483813600,0.246813720703125,0.7925976514816284,1.1016954183578491,0.42042800784111023
1764544901500919300,0.263919189453125,0.807563841342926,1.1578950881958008,0.23640485107898712
1764544901518028500,0.281028564453125,0.6357579827308655,0.9529497623443604,-0.04795292019844055
1764544901535113500,0.298113525390625,0.4691445231437683,0.58062744140625,-0.2880229651927948
1764544901552220400,0.315220458984375,0.3854559659957886,0.3614795207977295,-0.42378777265548706
1764544901569310700,0.332310791015625,0.3582724630832672,0.2073887437582016,-0.4703662395477295
1764544901586408700,0.34940869140625,0.1287398487329483,0.4862487316131592,-0.46303585171699524
1764544901603510000,0.366510009765625,-0.10965031385421753,0.22632557153701782,-0.1537853181362152
1764544901620605200,0.383605224609375,-0.1892155110836029,-0.12629638612270355,0.05604688450694084
1764544901637696300,0.4006962890625,-0.1469130963087082,-0.31291571259498596,0.18280142545700073
1764544901654788400,0.417788330078125,-0.08155050873756409,-0.2968805134296417,0.22052235901355743
1764544901671888000,0.434887939453125,0.06261368840932846,-0.34147366881370544,0.23335053026676178
1764544901688985600,0.451985595703125,0.03985895588994026,-0.7394523620605469,0.29794952273368835
1764544901706085600,0.469085693359375,-0.003359758760780096,-1.5619823932647705,0.41722095012664795
1764544901723179800,0.4861796875,-0.11407908797264099,-2.425440549850464,0.4358523488044739
1764544901740273000,0.50327294921875,-0.4005748927593231,-2.908634901046753,0.3602577745914459
1764544901757377500,0.52037744140625,-0.6893614530563354,-2.766455888748169,0.19226983189582825
1764544901774456000,0.5374560546875,-0.8959866166114807,-1.9228510856628418,-0.02168571576476097
1764544901791559200,0.55455908203125,-0.8468119502067566,-1.0160216093063354,-0.19043724238872528
1764544901808659700,0.57165966796875,-0.6834055185317993,-0.7987062931060791,-0.28130343556404114
1764544901825750000,0.58875,-0.5485569834709167,-0.9738719463348389,-0.28527405858039856
1764544901842858800,0.605858642578125,-0.43997567892074585,-1.0641272068023682,-0.41004329919815063
1764544901859950000,0.6229501953125,-0.45005497336387634,-1.1438452005386353,-0.8327620625495911
1764544901877042400,0.64004248046875,-0.6542366743087769,-1.1992812156677246,-1.368032693862915
1764544901894148000,0.657148193359375,-0.6377432942390442,-1.21027672290802,-1.5789339542388916
1764544901911246600,0.67424658203125,-0.39354994893074036,-1.1113165616989136,-1.4193453788757324
1764544901928312300,0.691312255859375,-0.14263702929019928,-0.5855143666267395,-0.9621127843856812
1764544901945437700,0.708437744140625,-0.002138028386980295,0.13530665636062622,-0.6209444999694824
1764544901962533600,0.72553369140625,0.16523905098438263,0.1514945775270462,-0.5108360648155212
1764544901979623700,0.742623779296875,0.15195272862911224,-0.0012217304902151227,-0.3660610020160675
1764544901996719400,0.75971923828125,0.05360342562198639,0.06505715101957321,-0.20143280923366547
1764544902013823000,0.776822998046875,-0.02779436856508255,0.11102475970983505,0.08689557760953903
1764544902030908000,0.793907958984375,-0.11255192011594772,0.46792277693748474,0.25045475363731384
1764544902048009500,0.811009521484375,-0.14935655891895294,0.493731826543808,0.3880521357059479
1764544902065112300,0.8281123046875,-0.28466320037841797,0.4528038501739502,0.34162637591362
1764544902082201600,0.84520166015625,-0.48838675022125244,0.4940372705459595,0.11148291081190109
1764544902099294200,0.862294189453125,-0.45723262429237366,0.7681630253791809,-0.20082195103168488
1764544902116401000,0.87940087890625,-0.33429601788520813,1.0213667154312134,-0.4992296099662781
1764544902133488600,0.896488525390625,-0.38240164518356323,1.1879801750183105,-0.5568036437034607
1764544902150573000,0.913572998046875,-0.4625777006149292,0.5198463201522827,-0.3813326358795166
1764544902167690200,0.930690185546875,-0.21533000469207764,0.0607810914516449,-0.20601430535316467
1764544902184786200,0.9477861328125,0.0659734457731247,-0.2344195395708084,-0.04932736977934837
1764544902201885000,0.964885009765625,0.20815233886241913,-0.19257527589797974,-0.2515237629413605
1764544902218989000,0.981989013671875,0.35552358627319336,0.2382374405860901,-0.6094908118247986
1764544902236109800,0.99910986328125,0.38866302371025085,0.6013968586921692,-0.718224823474884
1764544902253177000,1.016177001953125,0.2968805134296417,0.5690209865570068,-0.6194173693656921
1764544902269943300,1.032943359375,0.35246923565864563,-0.030085112899541855,-0.24572055041790009
1764544902286698200,1.0496982421875,0.35903605818748474,-0.6374378800392151,0.24419337511062622
1764544902303465200,1.06646533203125,0.2591595947742462,-0.8515461683273315,0.6304129362106323
1764544902320223000,1.083222900390625,0.27977627515792847,-1.078940749168396,0.9724974632263184
1764544902336982000,1.09998193359375,-0.03573561832308769,-0.6269004344940186,1.050840973854065
1764544902353746000,1.116745849609375,-0.42012256383895874,-0.2984076738357544,0.8274169564247131
1764544902370509800,1.133509765625,-0.6540839672088623,-0.3326161205768585,0.6436992287635803
1764544902387265000,1.15026513671875,-0.803440511226654,-0.2509129047393799,0.5343543887138367
1764544902404029000,1.16702880859375,-1.0380127429962158,-0.29245173931121826,0.5283984541893005
1764544902420793300,1.18379345703125,-1.335809588432312,-0.4893030524253845,0.6166684627532959
1764544902437523000,1.20052294921875,-1.6727017164230347,-0.6059783101081848,0.7644978761672974
1764544902454286300,1.217286376953125,-1.653001308441162,-0.2515237629413605,0.6629415154457092
1764544902471073800,1.23407373046875,-0.7929030656814575,-0.11530081182718277,0.4291328489780426
1764544902487834600,1.250834716796875,-0.4473060667514801,0.03405573591589928,0.3637702465057373
1764544902504598800,1.267598876953125,-0.3113885521888733,-0.09162978827953339,0.5389358401298523
1764544902521356800,1.284356689453125,-0.16829337179660797,-0.44364088773727417,0.7292203903198242
1764544902538117600,1.30111767578125,-0.12599095702171326,-0.8087855577468872,0.6835582256317139
1764544902554881300,1.31788134765625,-0.17547103762626648,-0.9086620807647705,0.4547891616821289
1764544902571636000,1.334635986328125,-0.08765916526317596,-0.5354233980178833,0.25992316007614136
1764544902588401700,1.351401611328125,0.24816401302814484,0.04184427112340927,0.3484986126422882
1764544902605159700,1.36815966796875,0.4944954216480255,0.2588541507720947,0.5616905689239502
1764544902621927200,1.38492724609375,0.4356996417045593,0.4486805200576782,0.5881105065345764
1764544902638682000,1.40168212890625,0.33796119689941406,0.5061018466949463,0.3104722499847412
1764544902655446000,1.418446044921875,0.24862214922904968,0.285121351480484,0.047800205647945404
1764544902672204800,1.435204833984375,0.1391245573759079,-0.1797471046447754,-0.09147707372903824
1764544902688968700,1.45196875,0.17760907113552094,-0.34162637591362,-0.17531833052635193
1764544902705732900,1.46873291015625,0.4683809280395508,-0.19517144560813904,-0.3572034537792206
1764544902722487600,1.485487548828125,0.7779368758201599,-0.2102903574705124,-0.6062837839126587
1764544902739227000,1.502226806640625,0.8298604488372803,-0.3689626157283783,-0.3686571717262268
1764544902756017400,1.519017333984375,0.7005097270011902,-1.1238393783569336,-0.12308934330940247
1764544902772774700,1.535774658203125,0.6023131608963013,-1.7537940740585327,-0.03130684420466423
1764544902789507300,1.55250732421875,0.4411974251270294,-1.9052886962890625,-0.0708603709936142
1764544902806296000,1.569296142578125,0.4011857509613037,-1.7985399961471558,-0.3510948121547699
1764544902823061800,1.586061767578125,0.5325217843055725,-1.0514518022537231,-0.5134322643280029
1764544902839818800,1.60281884765625,1.2315043210983276,-1.2139419317245483,-0.2539672255516052
1764544902856583200,1.619583251953125,1.4175127744674683,-1.659568190574646,0.3430008292198181
1764544902873337300,1.63633740234375,0.7493789196014404,-2.3851232528686523,0.9552405476570129
1764544902890104300,1.653104248046875,0.12339477986097336,-2.6671903133392334,1.5793920755386353
1764544902906866700,1.66986669921875,0.16203200817108154,-3.056464195251465,1.8109099864959717
1764544902923624400,1.68662451171875,0.5798638463020325,-3.1783318519592285,1.9028452634811401
1764544902940383500,1.703383544921875,1.0209085941314697,-2.942843437194824,1.8387043476104736
1764544902957147400,1.7201474609375,1.5587754249572754,-2.2963950634002686,1.0015136003494263
1764544902973911000,1.7369111328125,1.799150824546814,-1.3228286504745483,0.4260784983634949
1764544902990666500,1.75366650390625,2.029141664505005,-0.16508632898330688,0.10980302840471268
1764544903007431700,1.770431640625,2.454151153564453,0.19333885610103607,0.009468411095440388
1764544903024163800,1.787163818359375,2.704758644104004,-0.06108652427792549,-0.05054909735918045
1764544903040955000,1.803954833984375,2.7007880210876465,-0.6131559610366821,-0.22449298202991486
1764544903057717000,1.820717041015625,2.6054930686950684,-0.850782573223114,-0.5051855444908142
1764544903074476800,1.837476806640625,2.682920217514038,-0.6664539575576782,-0.5508477091789246
1764544903091233500,1.854233642578125,2.805245876312256,-0.3075706362724304,-0.4346306324005127
1764544903107976000,1.870975830078125,2.858543872833252,-0.26404649019241333,-0.4508185386657715
1764544903124760000,1.887760009765625,2.7563767433166504,0.06459899991750717,-0.6609562039375305
1764544903141503700,1.904503662109375,2.1226038932800293,0.12522737681865692,-1.2064588069915771
1764544903158283500,1.921283447265625,1.7472273111343384,0.056810468435287476,-1.645671010017395
1764544903175042300,1.938042236328125,1.574352502822876,0.12171489745378494,-1.8677204847335815
1764544903191783400,1.954783447265625,1.2209669351577759,0.1010981947183609,-1.695609211921692
1764544903208564200,1.971564208984375,0.6513350605964661,0.31383201479911804,-1.2817480564117432
1764544903225328000,1.988328125,-0.07895433157682419,0.7266241908073425,-1.0888673067092896
1764544903242084000,2.005083984375,-0.877966046333313,1.124755620956421,-1.1482739448547363
1764544903258849800,2.021849853515625,-1.5612188577651978,1.2890783548355103,-1.1664471626281738
1764544903275609000,2.038609130859375,-1.9917261600494385,1.4700472354888916,-0.8944594264030457
1764544903292367400,2.055367431640625,-2.316706418991089,1.6588045358657837,-0.49525898694992065
1764544903309134300,2.07213427734375,-2.713005304336548,2.069153308868408,-0.2102903574705124
1764544903325892400,2.088892333984375,-2.9683468341827393,2.470033645629883,-0.05100724846124649
1764544903342651000,2.10565087890625,-3.0227138996124268,2.9093985557556152,-0.06765332818031311
1764544903359417600,2.12241748046875,-3.1166343688964844,3.20169734954834,-0.16768251359462738
1764544903376175400,2.13917529296875,-3.2835533618927,3.1192307472229004,-0.168751522898674
1764544903392925000,2.155925048828125,-3.469561815261841,2.9827022552490234,-0.019394971430301666
1764544903409701000,2.172701171875,-3.662900686264038,2.9988901615142822,0.3260493278503418
1764544903426459100,2.189459228515625,-3.6499197483062744,2.819906711578369,0.879187822341919
1764544903443191600,2.206191650390625,-3.2149837017059326,2.2818870544433594,1.3179417848587036
1764544903459984600,2.222984619140625,-2.5581510066986084,1.1937834024429321,1.1407908201217651
1764544903476738000,2.239738037109375,-2.0980167388916016,0.49816060066223145,0.503047525882721
1764544903493505300,2.25650537109375,-1.8591684103012085,0.5697845816612244,0.20341812074184418
1764544903510268000,2.273267822265625,-1.810451865196228,0.48197266459465027,0.10934487730264664
1764544903527022000,2.29002197265625,-1.8295414447784424,0.3735440969467163,0.17608191072940826
1764544903543786500,2.306786376953125,-1.7886134386062622,0.21533000469207764,0.3712533414363861
1764544903560549400,2.32354931640625,-1.611920714378357,0.08399397134780884,0.6165157556533813
1764544903577308400,2.340308349609375,-1.369254469871521,-0.17256943881511688,0.788016140460968
1764544903594069000,2.357069091796875,-1.1720976829528809,-0.5329799056053162,0.9179777503013611
1764544903610834700,2.373834716796875,-0.9642508029937744,-0.7081455588340759,0.9651671051979065
1764544903627564300,2.390564208984375,-0.6988298296928406,-0.6527095437049866,0.794277548789978
1764544903644356400,2.4073564453125,-0.5919284224510193,-0.8046622276306152,0.675616979598999
1764544903661116700,2.42411669921875,-0.5119050741195679,-0.9992228150367737,0.5198463201522827
1764544903677871400,2.440871337890625,-0.6646214127540588,-1.1563678979873657,0.13209961354732513
1764544903694639900,2.457639892578125,-0.7603744864463806,-0.6661485433578491,-0.5349652171134949
1764544903711401500,2.4744013671875,-0.6382014751434326,0.5099197626113892,-0.9598219990730286
1764544903728159500,2.491159423828125,-0.6400340795516968,1.0813841819763184,-1.0580185651779175
1764544903744918000,2.50791796875,-0.460897833108902,0.9132435321807861,-0.8602510094642639
1764544903761685000,2.52468505859375,-0.30573806166648865,0.10797043144702911,-0.6004805564880371
1764544903778418000,2.54141796875,-0.1713477075099945,-0.6052147150039673,-0.3692680299282074
1764544903795202000,2.5582021484375,0.021380282938480377,-0.6869179606437683,-0.18799377977848053
1764544903811940600,2.574940673828125,0.3274237811565399,-0.6294966340065002,-0.14263702929019928
1764544903828729600,2.5917294921875,0.5308418869972229,-0.7730499505996704,-0.2561052441596985
1764544903845485000,2.608485107421875,0.697760820388794,-1.2530373334884644,-0.3862195611000061
1764544903862251800,2.625251708984375,0.8672759532928467,-1.8295414447784424,-0.4599815309047699
1764544903879009800,2.642009765625,1.0351111888885498,-2.27211332321167,-0.38438695669174194
1764544903895769000,2.65876904296875,1.431868076324463,-2.4999659061431885,-0.30405816435813904
1764544903912532200,2.6755322265625,1.9848538637161255,-2.7346909046173096,0.08674286305904388
1764544903929290500,2.69229052734375,2.587319850921631,-3.2898147106170654,0.6120869517326355
1764544903946051800,2.7090517578125,3.2084169387817383,-3.6749653816223145,1.1281154155731201
1764544903962818800,2.72581884765625,3.8027889728546143,-3.7673587799072266,1.6578882932662964
1764544903979576600,2.74257666015625,4.311028957366943,-3.7872118949890137,1.8620699644088745
1764544903996309500,2.7593095703125,5.030322551727295,-3.5459201335906982,1.9709566831588745
1764544904013102300,2.776102294921875,5.591096878051758,-3.076011896133423,1.9488128423690796
1764544904029860400,2.7928603515625,5.851172924041748,-2.520888090133667,1.7759380340576172
1764544904046618600,2.80961865234375,5.818185806274414,-2.263561248779297,1.508989930152893
1764544904063385600,2.826385498046875,5.584377288818359,-2.510045289993286,1.26067316532135
1764544904080123600,2.84312353515625,5.276042938232422,-2.970332145690918,1.133460521697998
1764544904096904700,2.85990478515625,4.846146583557129,-3.121216058731079,1.0471757650375366
1764544904113669000,2.876669189453125,4.467257499694824,-3.1341967582702637,0.8118399381637573
1764544904130422500,2.893422607421875,4.241237163543701,-2.858085870742798,0.5821545720100403
1764544904147189800,2.910189697265625,3.964515447616577,-1.9100228548049927,0.584750771522522
1764544904163952400,2.926952392578125,3.706882953643799,-1.2014192342758179,0.6298020482063293
1764544904180711000,2.9437109375,3.523165225982666,-1.0771081447601318,0.8176431059837341
1764544904197468200,2.96046826171875,3.1581733226776123,-1.1276572942733765,1.383151650428772
1764544904214211800,2.9772119140625,2.4587326049804688,-1.3573426008224487,2.2492058277130127
1764544904230970400,2.993970458984375,1.302059292793274,-2.6668848991394043,2.3941335678100586
1764544904247752200,3.010752197265625,0.5464189648628235,-2.870455741882324,1.7805194854736328
1764544904264519400,3.02751953125,0.2509129047393799,-1.5363260507583618,1.3058772087097168
1764544904281273600,3.044273681640625,-0.313373863697052,-0.19868391752243042,1.374904990196228
1764544904298040000,3.0610400390625,-0.7139487266540527,0.5250386595726013,1.780824899673462
1764544904314774300,3.077774169921875,-0.9318749308586121,1.1939361095428467,2.2954788208007812
1764544904331560200,3.094560302734375,-1.0273226499557495,2.495842695236206,2.607630968093872
1764544904348322800,3.11132275390625,-1.3307698965072632,4.259105205535889,1.958433985710144
1764544904365099000,3.12809912109375,-1.435227870941162,4.355010986328125,1.2858713865280151
1764544904381844200,3.14484423828125,-1.0671815872192383,4.0523271560668945,1.2530373334884644
1764544904398610700,3.161610595703125,0.1359175145626068,1.7695238590240479,0.33658674359321594
1764544904415369200,3.178369140625,1.1690434217453003,-0.08491026610136032,0.9442449808120728
1764544904440483000,3.203483154296875,2.2820398807525635,-1.3209960460662842,0.8866708874702454
1764544904465624600,3.22862451171875,2.4278838634490967,-0.08949175477027893,0.19349156320095062
1764544904490777000,3.253777099609375,2.1563544273376465,0.23579397797584534,0.2900082767009735
1764544904507536100,3.2705361328125,2.0338759422302246,0.2477058619260788,0.3263547718524933
1764544904524288000,3.2872880859375,1.451415777206421,0.10216721147298813,0.32100969552993774
1764544904557811000,3.32081103515625,-0.21273382008075714,0.8367326855659485,-0.21792617440223694
1764544904574594000,3.337593994140625,-1.3573426008224487,1.2602150440216064,-0.3666718602180481
1764544904591365000,3.354365234375,-1.9620991945266724,1.4634803533554077,-0.21319197118282318
1764544904608094000,3.371093994140625,-2.363895893096924,1.6247488260269165,-0.05192354694008827
1764544904633264000,3.39626416015625,-1.3784173727035522,0.5609270334243774,-0.20693060755729675
1764544904650028000,3.413028076171875,-0.8408560156822205,0.14278975129127502,0.32879820466041565
1764544904679328500,3.44232861328125,0.39064833521842957,0.010231993161141872,0.2194533348083496
1764544904696088800,3.4590888671875,0.4934264123439789,0.14446963369846344,0.03481931984424591
1764544904712848000,3.475847900390625,0.4057672321796417,0.5404630303382874,0.12599095702171326
1764544904729602300,3.492602294921875,0.26679539680480957,0.8594874143600464,0.33536502718925476
1764544904746386000,3.509385986328125,0.02015855349600315,1.507157325744629,1.01617431640625
1764544904763143000,3.526142822265625,-0.25305092334747314,1.2185235023498535,1.316567301750183
1764544904779924700,3.5429248046875,-0.5050328373908997,1.5706872940063477,0.8477282524108887
1764544904796656000,3.55965625,-0.727082371711731,1.3092368841171265,0.593913733959198
1764544904813436400,3.5764365234375,-0.48716503381729126,1.0502300262451172,0.4141666293144226
1764544904830195700,3.59319580078125,0.04138612002134323,0.7031059265136719,-0.16661348938941956
1764544904846971600,3.6099716796875,0.7438811659812927,0.5293147563934326,-0.6983717083930969
1764544904863726300,3.626726318359375,1.3953689336776733,-0.021532999351620674,-0.940121591091156
1764544904880488000,3.643488037109375,2.0893118381500244,-0.9060658812522888,-1.1577423810958862
1764544904897232400,3.660232421875,2.677269697189331,-1.624901533126831,-1.5939000844955444
1764544904913984000,3.67698388671875,3.226437568664551,-2.391995668411255,-2.1893410682678223
1764544904930741200,3.6937412109375,4.147622108459473,-3.274695873260498,-2.6897923946380615
1764544904947536400,3.710536376953125,4.251469612121582,-3.6551122665405273,-2.2458460330963135
1764544904964286700,3.72728662109375,3.1364874839782715,-2.3496930599212646,-1.9240728616714478
1764544904981060000,3.74406005859375,2.1363484859466553,-0.4398229718208313,-1.9150625467300415
1764544904997815600,3.760815673828125,1.4682146310806274,-0.6210972666740417,-1.9837849140167236
1764544905014577200,3.7775771484375,1.630552053451538,-1.8869627714157104,-1.7287486791610718
1764544905031337500,3.79433740234375,1.8303049802780151,-2.8880181312561035,-1.451874017715454
1764544905048098800,3.811098876953125,1.880243182182312,-2.6535985469818115,-1.2933543920516968
1764544905064860200,3.827860107421875,1.487609624862671,-2.520888090133667,-1.4555391073226929
1764544905081621000,3.84462109375,1.478141188621521,-2.0424280166625977,-2.4825563430786133
1764544905098382000,3.861382080078125,1.2977832555770874,-1.1001683473587036,-1.6771305799484253
1764544905115116500,3.878116455078125,1.1678216457366943,-0.41141775250434875,-0.9054549932479858
1764544905131904000,3.894904052734375,0.837496280670166,0.07147123664617538,-0.650418758392334
1764544905148627700,3.911627685546875,0.531147301197052,0.4821254014968872,-0.6111706495285034
1764544905165426200,3.92842626953125,0.11316278576850891,0.6632469296455383,-0.48640143871307373
1764544905182181000,3.94518115234375,-0.24908030033111572,1.1093312501907349,-0.30863967537879944
1764544905198955300,3.961955322265625,-0.11331550031900406,0.4605923891067505,-0.02122756652534008
1764544905215715800,3.9787158203125,0.005803219974040985,0.8817839622497559,-0.5662720799446106
1764544905232466000,3.9954658203125,-0.6033821702003479,2.149329423904419,-0.48166725039482117
1764544905249232600,4.012232666015625,-0.6484334468841553,1.5884023904800415,-0.6577491760253906
1764544905265985800,4.02898583984375,0.1062905490398407,1.0563386678695679,-1.306488037109375
1764544905282762500,4.045762451171875,1.0068585872650146,0.6047565937042236,-1.3836097717285156
1764544905299516000,4.062515869140625,1.0610729455947876,1.7858645915985107,-0.38011088967323303
1764544905316277000,4.079277099609375,0.7541131377220154,1.3516920804977417,0.33047810196876526
1764544905333037800,4.096037841796875,0.4579962193965912,0.57436603307724,0.42989641427993774
1764544905349793000,4.11279296875,0.24724771082401276,0.029932396486401558,0.18325957655906677
1764544905366558200,4.12955810546875,0.07987063378095627,-0.3245221674442291,-0.21594086289405823
1764544905383321000,4.146321044921875,-0.36819902062416077,-0.11804971098899841,-0.8086328506469727
1764544905400057000,4.16305712890625,-0.5820018649101257,-0.3263547718524933,-0.8689557909965515
1764544905416844500,4.179844482421875,-0.5309945940971375,-0.1693623960018158,-0.807563841342926
1764544905433594000,4.196593994140625,-0.30512720346450806,-0.08628471940755844,-0.4447098970413208
1764544905450376700,4.213376708984375,-0.23900102078914642,-0.16890424489974976,-0.0913243517279625
1764544905467134000,4.230134033203125,-0.30543261766433716,0.5426010489463806,-0.00366519158706069
1764544905483882000,4.246882080078125,-0.22739458084106445,0.7736608386039734,0.055741455405950546
1764544905500649200,4.263649169921875,-0.3032945990562439,-0.10797043144702911,0.45265114307403564
1764544905517410800,4.280410888671875,-0.337503045797348,-0.025503624230623245,0.5528330206871033
1764544905534199600,4.297199462890625,-0.12064588814973831,0.39874228835105896,0.20830504596233368
1764544905550933800,4.313933837890625,0.21273382008075714,0.0887281745672226,0.09162978827953339
1764544905567693800,4.33069384765625,0.4648684561252594,-0.33047810196876526,-0.05100724846124649
1764544905584454700,4.34745458984375,0.39248090982437134,-0.1739438772201538,-0.299018532037735
1764544905601216500,4.364216552734375,0.3222314119338989,-0.08643743395805359,-0.4024074673652649
1764544905617940000,4.38093994140625,0.3107776939868927,-0.03955352306365967,-0.3943135142326355
1764544905634738700,4.39773876953125,0.2675589919090271,-0.12629638612270355,-0.27550023794174194
1764544905651482000,4.414482177734375,0.23136521875858307,-0.2499966025352478,-0.09896016865968704
1764544905668260600,4.431260498046875,0.2616030275821686,-0.23487769067287445,0.27320948243141174
1764544905685016300,4.448016357421875,0.251218318939209,-0.03344487398862839,0.5157229900360107
1764544905701787600,4.46478759765625,0.16371189057826996,0.05497787147760391,0.4225660264492035
1764544905718522000,4.481522216796875,0.05207626149058342,-0.08659014850854874,0.12400564551353455
1764544905735311000,4.49831103515625,0.007788531947880983,-0.10308351367712021,0.02076941914856434
1764544905752066800,4.51506689453125,-0.0007635815418325365,-0.4453207552433014,-0.3390302062034607
1764544905768830500,4.53183056640625,0.09789115190505981,-1.482569932937622,-1.548237919807434
1764544905785588700,4.548588623046875,0.06963863968849182,-1.3894129991531372,-1.1968377828598022
1764544905802350300,4.565350341796875,0.05497787147760391,-0.9115636348724365,-0.49953505396842957
1764544905819078100,4.582078125,0.08796459436416626,-0.25442537665367126,0.10537425428628922
1764544905835872300,4.598872314453125,0.05513058975338936,0.10354165732860565,0.4996877610683441
1764544905852633900,4.6156337890625,0.07391469180583954,0.25045475363731384,0.513126790523529
1764544905869367000,4.632366943359375,0.06215553730726242,0.09269879758358002,0.3095559775829315
1764544905886155500,4.649155517578125,0.07528914511203766,-0.15836681425571442,0.05161811411380768
1764544905902891000,4.66589111328125,0.09254608303308487,-0.30925053358078003,-0.09865473955869675
1764544905919666000,4.682666015625,0.1362229436635971,-0.32589662075042725,-0.06276640295982361
1764544905936444000,4.69944384765625,0.13820825517177582,-0.32009339332580566,0.06352998316287994
1764544905953200600,4.71620068359375,0.12202033400535583,-0.31093040108680725,0.1699732542037964
1764544905969953800,4.732953857421875,0.16829337179660797,-0.21059578657150269,0.23839016258716583
1764544905986727000,4.749726806640625,0.2396118938922882,0.007941247895359993,0.23976461589336395
1764544906003484200,4.766484130859375,0.25732699036598206,0.194713294506073,0.18356500566005707
1764544906020242000,4.783241943359375,0.21914790570735931,0.20754146575927734,0.2047925740480423
1764544906037011500,4.800011474609375,0.09437867999076843,0.00015271631127689034,0.2278527319431305
1764544906053772800,4.816772705078125,-0.049785517156124115,-0.2664899528026581,0.1915062516927719
1764544906070528300,4.8335283203125,-0.20112738013267517,-0.5887213945388794,0.13469578325748444
1764544906087289300,4.850289306640625,-0.3442225754261017,-0.7435756921768188,0.07742717117071152
1764544906104050400,4.867050537109375,-0.4196644127368927,-0.7186829447746277,0.07696902006864548
1764544906120811500,4.8838115234375,-0.4161519408226013,-0.551916778087616,0.12599095702171326
1764544906137572900,4.90057275390625,-0.3773620128631592,-0.39125919342041016,0.1872301995754242
1764544906154301000,4.917301025390625,-0.31444287300109863,-0.2909245789051056,0.24862214922904968
1764544906171095000,4.934094970703125,-0.24617868661880493,-0.13759739696979523,0.2548835277557373
1764544906187850000,4.95085009765625,-0.18814650177955627,-0.0910189226269722,0.23335053026676178
1764544906204622800,4.967622802734375,-0.1518000066280365,-0.10293079167604446,0.17806722223758698
1764544906221379800,4.9843798828125,-0.10506882518529892,-0.17638733983039856,0.1235474944114685
1764544906238137900,5.001137939453125,-0.06368270516395569,-0.21181751787662506,0.12217304855585098
1764544906254901200,5.0179013671875,-0.048258353024721146,-0.14935655891895294,0.17959438264369965
1764544906271623700,5.034623779296875,-0.03481931984424591,0.010995574295520782,0.26053401827812195
1764544906288427800,5.051427734375,-0.04199698567390442,0.21242839097976685,0.31520646810531616
1764544906305184300,5.068184326171875,-0.08246681094169617,0.21991148591041565,0.3488040566444397
1764544906321953300,5.084953369140625,-0.0933096632361412,0.1771509200334549,0.346818745136261
1764544906338700300,5.1017001953125,-0.09483683109283447,0.14874568581581116,0.32788193225860596
1764544906355468500,5.118468505859375,-0.09178250283002853,0.024129176512360573,0.27947086095809937
1764544906372182800,5.135182861328125,-0.10002918541431427,-0.13377949595451355,0.204487144947052
1764544906388990000,5.151989990234375,-0.1463022232055664,-0.19792033731937408,0.09896016865968704
1764544906405731800,5.16873193359375,-0.18096883594989777,-0.2116648107767105,-0.00015271631127689034
1764544906422472400,5.185472412109375,-0.23884831368923187,-0.15485434234142303,-0.04566217586398125
1764544906439272400,5.2022724609375,-0.25106561183929443,-0.12324206531047821,0.03375030308961868
1764544906456034800,5.219034912109375,-0.2525927722454071,0.0429132841527462,0.1612684279680252
1764544906472761000,5.235760986328125,-0.21624629199504852,0.17608191072940826,0.2900082767009735
1764544906489546000,5.2525458984375,-0.14492778480052948,0.2396118938922882,0.40225476026535034
1764544906506329000,5.2693291015625,-0.08445212244987488,0.247094988822937,0.3926336467266083
1764544906523051000,5.286051025390625,-0.022143865004181862,0.09453139454126358,0.280539870262146
1764544906539817200,5.302817138671875,0.04199698567390442,0.10293079167604446,0.15073099732398987
1764544906556601600,5.3196015625,0.08338310569524765,0.008399397134780884,0.13668109476566315
1764544906573362200,5.336362060546875,0.17562375962734222,0.012217304669320583,0.11804971098899841
1764544906590123500,5.35312353515625,0.23380866646766663,-0.03420845419168472,0.12186761945486069
1764544906606884600,5.369884521484375,0.2710714638233185,-0.10674870014190674,0.12278391420841217
1764544906623646000,5.38664599609375,0.28955012559890747,0.00931569468230009,0.1466076523065567
1764544906640406300,5.40340625,0.30085113644599915,0.17547103762626648,0.17409659922122955
1764544906657123000,5.420123046875,0.30741792917251587,0.3058907687664032,0.13118331134319305
1764544906673910000,5.436909912109375,0.2874121069908142,0.3165809214115143,0.033597588539123535
1764544906690682600,5.4536826171875,0.26419922709465027,0.30894508957862854,-0.06215553730726242
1764544906707458000,5.4704580078125,0.24892759323120117,0.28420504927635193,-0.14294247329235077
1764544906724212700,5.487212646484375,0.1817324161529541,0.2002110779285431,-0.17928895354270935
1764544906740973300,5.503973388671875,0.1368338167667389,0.10781771689653397,-0.14324790239334106
1764544906757750800,5.520750732421875,0.14828753471374512,0.08506298810243607,0.0027488935738801956
1764544906774460700,5.537460693359375,0.14034628868103027,0.017409659922122955,0.10873401165008545
1764544906791260200,5.55426025390625,0.14340060949325562,0.008399397134780884,0.17180584371089935
1764544906808018200,5.57101806640625,0.16294831037521362,0.2541199326515198,0.27519479393959045
1764544906824780000,5.587780029296875,0.20295998454093933,0.4046982228755951,0.28756481409072876
1764544906841539800,5.604539794921875,0.2272418737411499,0.535881519317627,0.17073683440685272
1764544906858302200,5.62130224609375,0.22311852872371674,0.5210680365562439,-0.0009162978967651725
1764544906875037400,5.638037353515625,0.2373211532831192,0.4155410826206207,-0.19822576642036438
1764544906891823900,5.654823974609375,0.26343563199043274,0.25564709305763245,-0.3254384696483612
1764544906908567000,5.671567138671875,0.27229318022727966,0.15653422474861145,-0.3136793076992035
1764544906925330000,5.688329833984375,0.20845776796340942,0.12721268832683563,-0.17852537333965302
1764544906942081500,5.70508154296875,0.05253441259264946,0.058184914290905,-0.025045474991202354
1764544906958868500,5.721868408203125,-0.09697485715150833,-0.009621127508580685,0.09392052888870239
1764544906975634200,5.73863427734375,-0.16142113506793976,-0.04642575979232788,0.1547016203403473
1764544906992390400,5.755390380859375,-0.20311269164085388,0.005345070734620094,0.1488984078168869
1764544907009152800,5.77215283203125,-0.15546520054340363,0.1443169116973877,0.04001167416572571
1764544907025863700,5.78886376953125,-0.0933096632361412,0.26404649019241333,-0.11942415684461594
1764544907042680000,5.80568017578125,-0.007788531947880983,0.4424191415309906,-0.2770273983478546
1764544907059435800,5.822435791015625,0.0429132841527462,0.49327367544174194,-0.4184426963329315
1764544907076196900,5.83919677734375,0.06582073122262955,0.504574716091156,-0.5502368807792664
1764544907092957700,5.855957763671875,0.12202033400535583,0.4792237877845764,-0.6495024561882019
1764544907109713700,5.872713623046875,0.08964447677135468,0.4282165467739105,-0.7108944058418274
1764544907126485500,5.889485595703125,-0.05772676691412926,0.2817615866661072,-0.6985244154930115
1764544907143240700,5.90624072265625,-0.19562959671020508,0.30222558975219727,-0.6979135274887085
1764544907159980500,5.92298046875,-0.2770273983478546,0.22281309962272644,-0.6550002694129944
1764544907176763400,5.939763427734375,-0.3214678466320038,0.12629638612270355,-0.5791002511978149
1764544907193499400,5.95649951171875,-0.3321579694747925,0.04993823543190956,-0.4970915913581848
1764544907210285600,5.97328564453125,-0.27748554944992065,0.08200865983963013,-0.46150869131088257
1764544907227047200,5.990047119140625,-0.17058411240577698,0.038026362657547,-0.4737260043621063
1764544907243807500,6.006807373046875,-0.11499538272619247,-0.030543262138962746,-0.4824308156967163
1764544907260563700,6.023563720703125,-0.0455094613134861,0.03344487398862839,-0.4651738703250885
1764544907277303600,6.040303466796875,0.03084869496524334,0.15057829022407532,-0.408974289894104
1764544907294060300,6.057060302734375,0.11484266817569733,0.24144448339939117,-0.33078351616859436
1764544907310858800,6.073858642578125,0.1661553531885147,0.29886582493782043,-0.2765692472457886
1764544907327610600,6.090610595703125,0.13958270847797394,0.3295617997646332,-0.2701551616191864
1764544907344374500,6.10737451171875,0.09514226019382477,0.2932153046131134,-0.2952006161212921
1764544907361137200,6.12413720703125,0.03588833287358284,0.2002110779285431,-0.3084869384765625
1764544907377900000,6.140900146484375,-0.013897184282541275,0.08704829961061478,-0.28787025809288025
1764544907394658800,6.157658935546875,-0.03420845419168472,-0.012522737495601177,-0.24984388053417206
1764544907411394000,6.17439404296875,-0.02672535367310047,-0.06963863968849182,-0.22098049521446228
1764544907428136400,6.191136474609375,-0.003817907767370343,-0.12140946835279465,-0.1966986060142517
1764544907444912400,6.207912353515625,0.02168571576476097,-0.18035796284675598,-0.1716531366109848
1764544907461703400,6.224703369140625,0.02519819140434265,-0.2347249686717987,-0.15806138515472412
1764544907478425300,6.24142529296875,-0.006261368747800589,-0.3248275816440582,-0.15454891324043274
1764544907495225300,6.258225341796875,-0.04764748737215996,-0.4596760869026184,-0.14004085958003998
1764544907511981600,6.274981689453125,-0.15225815773010254,-0.4300491213798523,-0.13377949595451355
1764544907528720100,6.29172021484375,-0.21181751787662506,-0.5093088746070862,-0.039706241339445114
1764544907545508000,6.308508056640625,-0.2347249686717987,-0.5247332453727722,0.12996158003807068
1764544907562270200,6.325270263671875,-0.18814650177955627,-0.4801400899887085,0.2987131178379059
1764544907578984200,6.341984130859375,-0.09957103431224823,-0.38240164518356323,0.4541783034801483
1764544907595792100,6.358792236328125,-0.02275473065674305,-0.22281309962272644,0.5404630303382874
1764544907612553700,6.3755537109375,0.01038470957428217,-0.13377949595451355,0.5012149214744568
1764544907629273000,6.392273193359375,-0.0022907445672899485,-0.15592335164546967,0.36224308609962463
1764544907646075000,6.409074951171875,-0.02535090781748295,-0.2070833146572113,0.22617286443710327
1764544907662822000,6.42582177734375,0.02977968007326126,-0.1840231567621231,0.19547687470912933
1764544907679562200,6.442562255859375,0.09178250283002853,-0.26801711320877075,0.2474004179239273
1764544907696341200,6.45934130859375,0.13744467496871948,-0.2629774808883667,0.30802878737449646
1764544907713120300,6.476120361328125,0.21823160350322723,-0.30863967537879944,0.3937026560306549
1764544907729845000,6.492844970703125,0.30863967537879944,-0.17592918872833252,0.39767327904701233
1764544907746648300,6.5096484375,0.25213462114334106,0.022602014243602753,0.3303253948688507
1764544907763397400,6.5263974609375,0.11850785464048386,-0.05406157299876213,0.2886338233947754
1764544907780161500,6.54316162109375,0.0013744467869400978,-0.18112154304981232,0.2041817009449005
1764544907796925700,6.55992578125,-0.05192354694008827,-0.3413209617137909,0.09666942805051804
1764544907813687000,6.57668701171875,-0.128434419631958,-0.5839871764183044,0.032070424407720566
1764544907830443500,6.593443603515625,-0.21242839097976685,-0.6849326491355896,0.004428773187100887
1764544907847209500,6.61020947265625,-0.256868839263916,-0.6064364910125732,0.029474247246980667
1764544907863970600,6.626970458984375,-0.26679539680480957,-0.44089198112487793,0.12171489745378494
1764544907880693000,6.64369287109375,-0.2588541507720947,-0.2382374405860901,0.2588541507720947
1764544907897511400,6.660511474609375,-0.26771169900894165,-0.022449297830462456,0.3764457106590271
1764544907914229200,6.677229248046875,-0.28420504927635193,0.13973543047904968,0.4205807149410248
1764544907931006000,6.694005859375,-0.28237244486808777,0.16890424489974976,0.3810271918773651
1764544907947739000,6.71073876953125,-0.2477058619260788,0.1235474944114685,0.2941316068172455
1764544907964511700,6.72751171875,-0.19425514340400696,0.04092797264456749,0.2177734673023224
1764544907981284600,6.74428466796875,-0.13118331134319305,-0.021532999351620674,0.17776179313659668
1764544907998048500,6.761048583984375,-0.08720101416110992,-0.043676864355802536,0.16111570596694946
1764544908014814700,6.777814697265625,-0.07177666574716568,-0.016035212203860283,0.1420261710882187
1764544908031572200,6.794572265625,-0.0913243517279625,0.013133603148162365,0.11927144229412079
1764544908048342300,6.81134228515625,-0.1385136991739273,0.021380282938480377,0.11407908797264099
1764544908065104100,6.828104248046875,-0.16859880089759827,0.042760565876960754,0.15332718193531036
1764544908081862400,6.8448623046875,-0.1973094791173935,0.0377209298312664,0.27061331272125244
1764544908098632700,6.8616328125,-0.21609358489513397,0.015118914656341076,0.38667771220207214
1764544908115387600,6.8783876953125,-0.20525072515010834,-0.043676864355802536,0.4297437071800232
1764544908132105000,6.89510498046875,-0.18356500566005707,-0.04535674303770065,0.34773504734039307
1764544908148909600,6.91190966796875,-0.1508837193250656,-0.06612616032361984,0.21884247660636902
1764544908165671200,6.928671142578125,-0.09712757170200348,-0.0884227454662323,0.11148291081190109
1764544908182393300,6.945393310546875,-0.050243668258190155,-0.07910704612731934,0.06154467165470123
1764544908199163400,6.962163330078125,-0.04459316283464432,-0.02977968007326126,0.08032877743244171
1764544908215955000,6.978954833984375,-0.08261952549219131,0.055741455405950546,0.1414152979850769
1764544908232682200,6.99568212890625,-0.13668109476566315,0.13958270847797394,0.21288654208183289
1764544908249476000,7.01247607421875,-0.13484850525856018,0.17440202832221985,0.24648413062095642
1764544908266231800,7.029231689453125,-0.11255192011594772,0.15347988903522491,0.23197607696056366
1764544908282977000,7.04597705078125,-0.07116580009460449,0.096211276948452,0.18555031716823578
1764544908299759600,7.062759521484375,-0.01664607785642147,0.028099801391363144,0.13408492505550385
1764544908316521200,7.079521240234375,0.038637228310108185,-0.005192354787141085,0.09743300825357437
1764544908333283300,7.096283447265625,0.09178250283002853,-0.018478672951459885,0.07498370856046677
1764544908350043400,7.11304345703125,0.1388191282749176,0.01924225501716137,0.06368270516395569
1764544908366804700,7.1298046875,0.16859880089759827,0.07925976812839508,0.04489859566092491
1764544908383565600,7.146565673828125,0.18051068484783173,0.14416420459747314,0.012828170321881771
1764544908400326400,7.163326416015625,0.1921171247959137,0.19196440279483795,-0.01924225501716137
1764544908417088500,7.180088623046875,0.20341812074184418,0.22647829353809357,-0.03985895588994026
1764544908433843700,7.19684375,0.21762074530124664,0.2393064647912979,-0.048258353024721146
1764544908450566100,7.213566162109375,0.23686300218105316,0.2347249686717987,-0.04948008432984352
1764544908467371800,7.230371826171875,0.25763240456581116,0.23182335495948792,-0.050243668258190155
1764544908484131300,7.24713134765625,0.26832255721092224,0.23747386038303375,-0.05849034711718559
1764544908500893700,7.263893798828125,0.2695443034172058,0.2538145184516907,-0.0835358202457428
1764544908517655300,7.2806552734375,0.2643519341945648,0.2611449062824249,-0.1082758679986
1764544908534400500,7.297400390625,0.2451096773147583,0.251218318939209,-0.10674870014190674
1764544908551177000,7.314177001953125,0.21700987219810486,0.23808473348617554,-0.0835358202457428
1764544908567939000,7.33093896484375,0.18356500566005707,0.22586742043495178,-0.05925392732024193
1764544908584699400,7.347699462890625,0.1488984078168869,0.2145664244890213,-0.03756821155548096
1764544908601460500,7.36446044921875,0.11270463466644287,0.2168571650981903,-0.013286318629980087
1764544908618222300,7.381222412109375,0.0757472887635231,0.23716843128204346,0.009162978269159794
1764544908634951000,7.397950927734375,0.05253441259264946,0.2880229651927948,0.03039054572582245
1764544908651743500,7.414743408203125,0.04153883829712868,0.36010506749153137,0.06276640295982361
1764544908668505000,7.431505126953125,0.039248090237379074,0.39843684434890747,0.056352317333221436
1764544908685238500,7.448238525390625,0.040622539818286896,0.37491855025291443,0.019394971430301666
1764544908701981000,7.46498095703125,0.03527746722102165,0.2968805134296417,-0.05421429127454758
1764544908718788600,7.48178857421875,-0.001527163083665073,0.17730364203453064,-0.13026700913906097
1764544908735524400,7.4985244140625,-0.04046982154250145,0.039706241339445114,-0.1586722433567047
1764544908752310500,7.515310546875,-0.06918048858642578,-0.07009678333997726,-0.1215621829032898
1764544908769073000,7.532072998046875,-0.08017606288194656,-0.09224065393209457,-0.03634648025035858
1764544908785793800,7.548793701171875,-0.06933320313692093,-0.037110064178705215,0.04230241850018501
1764544908802578200,7.565578125,-0.00855211354792118,0.024434609338641167,0.07024950534105301
1764544908819356200,7.582356201171875,0.06062837690114975,0.14538592100143433,0.030543262138962746
1764544908836117800,7.59911767578125,0.1281289905309677,0.31780263781547546,-0.06536258012056351
1764544908852877600,7.615877685546875,0.1843285858631134,0.4957171380519867,-0.20433442294597626
1764544908869633000,7.632633056640625,0.192422553896904,0.599564254283905,-0.3640756905078888
1764544908886407000,7.649406982421875,0.14492778480052948,0.6064364910125732,-0.5051855444908142
1764544908903161000,7.6661611328125,0.060475658625364304,0.4902193546295166,-0.6062837839126587
1764544908919922400,7.68292236328125,-0.06490442901849747,0.27122417092323303,-0.6783658266067505
1764544908936651500,7.699651611328125,-0.2165517359972,-0.020922135561704636,-0.7180721163749695
1764544908953399800,7.71639990234375,-0.36102136969566345,-0.3061962127685547,-0.7111998796463013
1764544908970206700,7.733206787109375,-0.437226802110672,-0.5103778839111328,-0.6299547553062439
1764544908986947300,7.749947265625,-0.41493022441864014,-0.5850561857223511,-0.48487427830696106
1764544909003728000,7.766727783203125,-0.3634648323059082,-0.5264131426811218,-0.3251330256462097
1764544909020489500,7.783489501953125,-0.23060162365436554,-0.41599923372268677,-0.18539759516716003
1764544909037255700,7.800255615234375,-0.078343465924263,-0.3019201457500458,-0.047189339995384216
1764544909053986300,7.816986328125,0.0064140851609408855,-0.1621847152709961,0.06383541971445084
1764544909070773200,7.833773193359375,0.040622539818286896,0.012217304669320583,0.12568552792072296
1764544909087534300,7.850534423828125,0.08414668589830399,0.11636982858181,0.13988813757896423
1764544909104295000,7.867294921875,0.12996158003807068,0.17760907113552094,0.09086620807647705
1764544909121056300,7.88405615234375,0.12660181522369385,0.17577648162841797,-0.03481931984424591
1764544909137801700,7.9008017578125,0.10674870014190674,0.06429356336593628,-0.18738290667533875
1764544909154579200,7.9175791015625,0.08414668589830399,-0.06704246252775192,-0.3081815242767334
1764544909171340000,7.934340087890625,0.09040805697441101,-0.1765400618314743,-0.3692680299282074
1764544909188104700,7.951104736328125,0.12736541032791138,-0.2611449062824249,-0.3646865487098694
1764544909204830000,7.967829833984375,0.1794416606426239,-0.34987306594848633,-0.29107728600502014
1764544909221623300,7.984623291015625,0.22311852872371674,-0.4127921760082245,-0.17318029701709747
1764544909238341400,8.00134130859375,0.22770002484321594,-0.3556762933731079,-0.044745877385139465
1764544909255145700,8.018145751953124,0.19043724238872528,-0.21090123057365417,0.0685696229338646
1764544909271900700,8.034900634765625,0.18814650177955627,-0.11514809727668762,0.14966198801994324
1764544909288639000,8.051638916015625,0.14538592100143433,-0.03451388701796532,0.16279558837413788
1764544909305423000,8.068423095703125,0.07498370856046677,-0.03329215571284294,0.154396191239357
1764544909322196700,8.08519677734375,0.01160643994808197,-0.0933096632361412,0.1699732542037964
1764544909338951200,8.101951171875,-0.03481931984424591,-0.1661553531885147,0.2275473028421402
1764544909355712000,8.1187119140625,-0.040622539818286896,-0.2649627923965454,0.2915354371070862
1764544909372474400,8.135474365234375,-0.031001411378383636,-0.34865134954452515,0.30970868468284607
1764544909389239300,8.1522392578125,-0.015271631069481373,-0.4179845452308655,0.26893341541290283
1764544909405996000,8.16899609375,-0.006719517521560192,-0.48869219422340393,0.1927279829978943
1764544909422756900,8.1857568359375,-0.07910704612731934,-0.36911532282829285,0.12980885803699493
1764544909439488500,8.202488525390624,-0.06841690838336945,-0.27977627515792847,0.1615738570690155
1764544909456259800,8.219259765625,-0.026572637259960175,-0.11514809727668762,0.24358251690864563
1764544909473041400,8.23604150390625,0.04902193695306778,-0.0022907445672899485,0.32818734645843506
1764544909489777000,8.25277685546875,0.10323622822761536,0.012980886735022068,0.3378084897994995
1764544909506569000,8.26956884765625,0.078343465924263,-0.056810468435287476,0.27641651034355164
1764544909523324400,8.286324462890626,0.07513642311096191,-0.19715675711631775,0.1713477075099945
1764544909540057300,8.303057373046874,0.10735956579446793,-0.25045475363731384,0.07651086896657944
1764544909556844500,8.319844482421875,0.15806138515472412,-0.21823160350322723,0.021532999351620674
1764544909573610200,8.3366103515625,0.1745547503232956,-0.15286903083324432,-0.012522737495601177
1764544909590359800,8.35335986328125,0.17287486791610718,-0.08109235763549805,-0.014049900695681572
1764544909607130000,8.370130126953125,0.17318029701709747,0.03741549700498581,0.01878410577774048
1764544909623891700,8.3868916015625,0.1846340149641037,0.21823160350322723,0.04642575979232788
1764544909640648200,8.403648193359375,0.21471913158893585,0.41661009192466736,0.06612616032361984
1764544909657413400,8.420413330078125,0.23579397797584534,0.5780312418937683,0.07498370856046677
1764544909674198300,8.4371982421875,0.22892175614833832,0.6575964093208313,0.025961773470044136
1764544909690937000,8.45393701171875,0.21823160350322723,0.6281222105026245,-0.07925976812839508
1764544909707662000,8.470662109375,0.18677204847335815,0.4944954216480255,-0.22861631214618683
1764544909724458200,8.487458251953125,0.10018189996480942,0.31871894001960754,-0.34636059403419495
1764544909741213200,8.504213134765624,-0.026114489883184433,0.1722639948129654,-0.3494149148464203
1764544909757977300,8.520977294921876,-0.15241087973117828,0.02672535367310047,-0.25595253705978394
1764544909774742300,8.5377421875,-0.24633140861988068,-0.096211276948452,-0.11636982858181
1764544909791502800,8.5545029296875,-0.3052799105644226,-0.12751811742782593,-0.0032070425804704428
1764544909808257000,8.571257080078125,-0.33276882767677307,-0.08048149943351746,0.029932396486401558
1764544909825032000,8.588031982421874,-0.3335324227809906,0.012522737495601177,0.005039638374000788
1764544909841786400,8.604786376953125,-0.3094032406806946,0.11133018881082535,-0.051312681287527084
1764544909858547700,8.621547607421874,-0.29168814420700073,0.17027868330478668,-0.1310305893421173
1764544909875309000,8.63830908203125,-0.29565876722335815,0.18845193088054657,-0.20112738013267517
1764544909892037000,8.655037109375,-0.3058907687664032,0.22846360504627228,-0.19715675711631775
1764544909908835300,8.67183544921875,-0.30115658044815063,0.3130684494972229,-0.1082758679986
1764544909925592000,8.688592041015625,-0.26710084080696106,0.3799581825733185,0.010231993161141872
1764544909942326000,8.705325927734375,-0.20616702735424042,0.36911532282829285,0.08857546001672745
1764544909959081000,8.7220810546875,-0.14309518039226532,0.2632829248905182,0.10674870014190674
1764544909975876000,8.7388759765625,-0.09651670604944229,0.11438451707363129,0.0936150997877121
1764544909992598500,8.7555986328125,-0.06719517707824707,-0.012675453908741474,0.07528914511203766
1764544910009397500,8.7723974609375,-0.05726861581206322,-0.054367005825042725,0.0659734457731247
1764544910026159400,8.789159423828124,-0.059864792972803116,-0.001832595793530345,0.06872233748435974
1764544910042882000,8.805882080078124,-0.07452555745840073,0.1137736514210701,0.07299839705228806
1764544910059676700,8.8226767578125,-0.05115996301174164,0.1595885455608368,0.07422012835741043
1764544910076446700,8.83944677734375,-0.009162978269159794,0.11301007121801376,0.029474247246980667
1764544910101566500,8.86456640625,-0.05451972410082817,0.010537425056099892,-0.07177666574716568
1764544910118304000,8.881303955078126,-0.1569923609495163,0.0025961773935705423,-0.11575896292924881
1764544910135117300,8.898117431640625,-0.28130343556404114,0.0507018156349659,-0.10797043144702911
1764544910151867400,8.914867431640625,-0.2816088795661926,0.07788532227277756,-0.02580905705690384
1764544910168593700,8.93159375,-0.2373211532831192,0.1310305893421173,0.07773260027170181
1764544910185389300,8.948389404296876,-0.20234911143779755,0.15592335164546967,0.18310685455799103
1764544910202151700,8.965151611328125,-0.16310101747512817,0.1647808998823166,0.24633140861988068
1764544910218883300,8.98188330078125,-0.12171489745378494,0.13973543047904968,0.2353358417749405
1764544910235673300,8.99867333984375,-0.07727445662021637,0.09315694868564606,0.16951510310173035
1764544910252434700,9.0154345703125,-0.03634648025035858,0.04245513305068016,0.09224065393209457
1764544910269200600,9.03220068359375,-0.0074830991216003895,0.022449297830462456,0.031154127791523933
1764544910285956900,9.048956787109375,0.024892758578062057,0.020463986322283745,0.0012217304902151227
1764544910302718500,9.065718505859374,0.047800205647945404,0.039706241339445114,0.0032070425804704428
1764544910319436000,9.08243603515625,0.05711590126156807,0.07223481684923172,0.02687807008624077
1764544910336240400,9.099240478515625,0.056810468435287476,0.09834930300712585,0.04764748737215996
1764544910353002000,9.116001953125,0.0555887371301651,0.1085812970995903,0.04230241850018501
1764544910369718300,9.13271826171875,0.0555887371301651,0.11438451707363129,0.005650503560900688
1764544910386515700,9.149515625,0.06719517707824707,0.13026700913906097,-0.051770828664302826
1764544910403285200,9.16628515625,0.07070764899253845,0.1560760736465454,-0.10980302840471268
1764544910420013000,9.183012939453125,0.09147707372903824,0.18325957655906677,-0.14309518039226532
1764544910436807700,9.1998076171875,0.10552696883678436,0.23228150606155396,-0.14324790239334106
1764544910453563000,9.21656298828125,0.13500121235847473,0.2672535479068756,-0.12247848510742188
1764544910470308400,9.233308349609375,0.14706580340862274,0.28588494658470154,-0.10659598559141159
1764544910487090700,9.250090576171875,0.1537853181362152,0.29077184200286865,-0.11423180252313614
1764544910503852500,9.2668525390625,0.1492038369178772,0.294437050819397,-0.13179416954517365
1764544910520617000,9.283616943359375,0.1589776873588562,0.2961169183254242,-0.1472185254096985
1764544910537374200,9.300374267578125,0.13561208546161652,0.3110831379890442,-0.13805554807186127
1764544910554110700,9.31711083984375,0.128434419631958,0.3068070709705353,-0.1059851199388504
1764544910570853600,9.333853515625,0.1111774742603302,0.2866485118865967,-0.07864890247583389
1764544910587657500,9.350657470703124,0.08888089656829834,0.24266621470451355,-0.018936822190880775
1764544910604419600,9.367419677734375,0.05726861581206322,0.18478673696517944,0.04795292019844055
1764544910621141200,9.384141357421875,0.040164388716220856,0.14767667651176453,0.09422596544027328
1764544910637931000,9.400930908203126,0.04612032696604729,0.17898350954055786,0.14828753471374512
1764544910654703000,9.417703125,0.05543602257966995,0.21151208877563477,0.19043724238872528
1764544910671431000,9.434430908203124,0.07376197725534439,0.20463985204696655,0.19975294172763824
1764544910688224500,9.451224609375,0.08368854224681854,0.1612684279680252,0.18356500566005707
1764544910704989400,9.467989501953125,0.07360926270484924,0.1014036312699318,0.12782354652881622
1764544910721717000,9.484717041015625,0.05604688450694084,0.034666601568460464,0.05711590126156807
1764544910738508800,9.5015087890625,0.03878994286060333,-0.011453723534941673,0.00366519158706069
1764544910755270100,9.518270263671875,0.02122756652534008,-0.01191187184303999,0.003054326167330146
1764544910772024800,9.53502490234375,-0.0010690141934901476,0.030695978552103043,0.04963280260562897
1764544910788797700,9.551797607421875,-0.015577063895761967,0.06276640295982361,0.09789115190505981
1764544910805554000,9.568553955078125,-0.005497787147760391,0.08109235763549805,0.09804387390613556
1764544910822297600,9.585297607421875,0.01114829070866108,0.09193521738052368,0.05146539583802223
1764544910839075300,9.602075439453126,0.023365596309304237,0.0685696229338646,-0.020005837082862854
1764544910855810800,9.618810791015624,0.02626720629632473,0.025503624230623245,-0.09147707372903824
1764544910872601300,9.635601318359376,0.043676864355802536,-0.012675453908741474,-0.15790866315364838
1764544910889350700,9.6523505859375,0.06780604273080826,-0.020311269909143448,-0.20723603665828705
1764544910906121000,9.669120849609374,0.08628471940755844,-0.011759156361222267,-0.2431243658065796
1764544910922836700,9.685836669921875,0.08964447677135468,-0.00931569468230009,-0.2877175211906433
1764544910939642600,9.702642578125,0.0780380368232727,-0.032681290060281754,-0.3349068760871887
1764544910956402700,9.719402587890626,0.07467827945947647,-0.07528914511203766,-0.35475999116897583
1764544910973127400,9.73612744140625,0.051312681287527084,-0.09544769674539566,-0.35033121705055237
1764544910989919200,9.752919189453126,0.023976460099220276,-0.10155634582042694,-0.328340083360672
1764544911006694400,9.7696943359375,-0.010995574295520782,-0.10720685124397278,-0.3006984293460846
1764544911023445200,9.7864453125,-0.05345070734620094,-0.12980885803699493,-0.28237244486808777
1764544911040209400,9.80320947265625,-0.08964447677135468,-0.17699819803237915,-0.28695395588874817
1764544911056970800,9.819970703125,-0.12522737681865692,-0.25595253705978394,-0.31261029839515686
1764544911073752300,9.83675244140625,-0.166460782289505,-0.3553708493709564,-0.3263547718524933
1764544911090492400,9.853492431640625,-0.21624629199504852,-0.4537201523780823,-0.3026837408542633
1764544911107254500,9.870254638671875,-0.2675589919090271,-0.5387831330299377,-0.2503020465373993
1764544911123986200,9.886986083984375,-0.3182607889175415,-0.598647952079773,-0.20570887625217438
1764544911140734500,9.903734375,-0.3497203588485718,-0.644768238067627,-0.1774563491344452
1764544911157512400,9.920512451171875,-0.35292738676071167,-0.6583600044250488,-0.15424346923828125
1764544911174273000,9.93727294921875,-0.35323283076286316,-0.5946773290634155,-0.09605856239795685
1764544911191034400,9.954034423828125,-0.3113885521888733,-0.4358523488044739,-0.0065668015740811825
1764544911207801000,9.970801025390625,-0.21624629199504852,-0.26145032048225403,0.058184914290905
1764544911224550700,9.987550537109374,-0.11698069423437119,-0.1615738570690155,0.06688974797725677
1764544911241344300,10.00434423828125,-0.04108068719506264,-0.1736384481191635,0.027488935738801956
1764544911258105600,10.021105712890625,0.027030786499381065,-0.23548854887485504,-0.05360342562198639
1764544911274880000,10.0378798828125,0.07528914511203766,-0.3202461004257202,-0.13759739696979523
1764544911291626800,10.054626708984374,0.10476338863372803,-0.3862195611000061,-0.17837265133857727
1764544911308389000,10.07138916015625,0.12140946835279465,-0.41141775250434875,-0.168751522898674
1764544911325149000,10.08814892578125,0.13087788224220276,-0.39614611864089966,-0.1313360333442688
1764544911341910800,10.104910888671874,0.1270599663257599,-0.36300668120384216,-0.0835358202457428
1764544911358672100,10.121672119140625,0.10277807712554932,-0.33735033869743347,-0.03084869496524334
1764544911375433200,10.13843310546875,0.035124752670526505,-0.29306259751319885,0.019853120669722557
1764544911392152000,10.155152099609374,-0.023518312722444534,-0.25671613216400146,0.08048149943351746
1764544911408956200,10.1719560546875,-0.07299839705228806,-0.21044307947158813,0.14340060949325562
1764544911425716000,10.188716064453125,-0.10170906037092209,-0.18005253374576569,0.1992947906255722
1764544911442477800,10.205477783203126,-0.10751228034496307,-0.18768835067749023,0.23716843128204346
1764544911459235300,10.2222353515625,-0.08704829961061478,-0.2168571650981903,0.2542726695537567
1764544911476004000,10.239004150390626,-0.05711590126156807,-0.25244006514549255,0.2580905556678772
1764544911492760800,10.2557607421875,-0.014355333521962166,-0.28008171916007996,0.2701551616191864
1764544911509520100,10.27252001953125,0.02428189292550087,-0.27000242471694946,0.29397889971733093
1764544911526285600,10.28928564453125,0.03741549700498581,-0.230448916554451,0.3246748745441437
1764544911543044900,10.306044921875,0.027641652151942253,-0.19226983189582825,0.35033121705055237
1764544911559806200,10.32280615234375,0.0074830991216003895,-0.1869247704744339,0.3520110845565796
1764544911576566800,10.33956689453125,-0.00733038317412138,-0.1944078654050827,0.33475416898727417
1764544911593327600,10.35632763671875,-0.00045814894838258624,-0.20570887625217438,0.3165809214115143
1764544911610090200,10.37309033203125,0.035582900047302246,-0.18280142545700073,0.30573806166648865
1764544911626850000,10.38985009765625,0.08979719132184982,-0.11178833991289139,0.30115658044815063
1764544911643586800,10.4065869140625,0.13484850525856018,-0.0010690141934901476,0.3055853247642517
1764544911660373000,10.423373046875,0.15974126756191254,0.06001751124858856,0.30405816435813904
1764544911677134300,10.44013427734375,0.1598939746618271,0.024892758578062057,0.256868839263916
1764544911693879600,10.456879638671875,0.14966198801994324,-0.04596760869026184,0.17501288652420044
1764544911710650600,10.473650634765624,0.16584990918636322,-0.0754418596625328,0.09896016865968704
1764544911727423500,10.490423583984375,0.1895209401845932,-0.09162978827953339,0.03405573591589928
1764544911744173300,10.50717333984375,0.19898934662342072,-0.12263119965791702,0.00855211354792118
1764544911760945700,10.523945556640625,0.2122756689786911,-0.1362229436635971,0.02367102913558483
1764544911777701000,10.540701171875,0.22907446324825287,-0.06750060617923737,0.05757404863834381
1764544911794462700,10.557462646484375,0.25244006514549255,0.08200865983963013,0.08918632566928864
1764544911811224600,10.574224609375,0.28267788887023926,0.22831088304519653,0.08750644326210022
1764544911827984000,10.59098388671875,0.29825496673583984,0.2938261926174164,0.04993823543190956
1764544911844746000,10.60774609375,0.27320948243141174,0.2701551616191864,-0.001527163083665073
1764544911861507300,10.62450732421875,0.22449298202991486,0.1918116807937622,-0.055283304303884506
1764544911878268400,10.641268310546875,0.16737708449363708,0.10384709388017654,-0.07910704612731934
1764544911895018000,10.65801806640625,0.10613783448934555,0.045204028487205505,-0.07513642311096191
1764544911911791400,10.674791259765625,0.027030786499381065,0.019089538604021072,-0.04764748737215996
1764544911928551200,10.69155126953125,-0.07590000331401825,0.015118914656341076,-0.013744467869400978
1764544911945312800,10.708312744140626,-0.1915062516927719,0.00733038317412138,0.024129176512360573
1764544911962068000,10.72506787109375,-0.2802344262599945,0.013439035043120384,0.05772676691412926
1764544911978841900,10.741841796875,-0.33460143208503723,0.06261368840932846,0.08735372871160507
1764544911995596300,10.75859619140625,-0.36942076683044434,0.13484850525856018,0.09422596544027328
1764544912012358700,10.775358642578125,-0.38606682419776917,0.21349740028381348,0.07024950534105301
1764544912029118500,10.792118408203125,-0.3822489380836487,0.30085113644599915,0.032070424407720566
1764544912045880300,10.80888037109375,-0.35155296325683594,0.38637226819992065,-0.005650503560900688
1764544912062641400,10.825641357421874,-0.3006984293460846,0.4584543704986572,-0.055741455405950546
1764544912079402200,10.84240234375,-0.2561052441596985,0.4444044530391693,-0.12171489745378494
1764544912096163600,10.85916357421875,-0.22189679741859436,0.35674530267715454,-0.1992947906255722
1764544912112925400,10.875925537109374,-0.2145664244890213,0.2399173229932785,-0.2646573781967163
1764544912129685800,10.892685791015625,-0.20204368233680725,0.12461651116609573,-0.29275718331336975
1764544912146414300,10.909414306640626,-0.18799377977848053,0.04092797264456749,-0.2793181240558624
1764544912163208700,10.926208740234374,-0.19517144560813904,0.012522737495601177,-0.2321287989616394
1764544912179977500,10.9429775390625,-0.20754146575927734,0.05009094998240471,-0.16798794269561768
1764544912196730600,10.959730712890625,-0.22128593921661377,0.12980885803699493,-0.1085812970995903
1764544912213492700,10.97649267578125,-0.24113905429840088,0.23182335495948792,-0.07238753139972687
1764544912230259700,10.993259765625,-0.2571742534637451,0.3168863356113434,-0.05910121276974678
1764544912247008000,11.010008056640626,-0.2773328125476837,0.36193767189979553,-0.0455094613134861
1764544912263775500,11.026775390625,-0.2616030275821686,0.32070425152778625,-0.012980886735022068
1764544912280536800,11.043536865234374,-0.16920967400074005,0.2587014436721802,0.025503624230623245
1764544912297297700,11.060297607421875,-0.0933096632361412,0.19837848842144012,0.058948494493961334
1764544912314034400,11.077034423828126,-0.015882495790719986,0.1713477075099945,0.07177666574716568
1764544912330819600,11.093819580078126,0.05314527451992035,0.16630806028842926,0.06108652427792549
1764544912347582000,11.11058203125,0.09453139454126358,0.14874568581581116,0.034666601568460464
1764544912364343000,11.127343017578125,0.0988074541091919,0.10506882518529892,0.01710422709584236
1764544912381103900,11.144103759765626,0.08659014850854874,0.06719517707824707,0.027030786499381065
1764544912397854700,11.160854736328124,0.07269296050071716,0.04917465150356293,0.06291911751031876
1764544912414627000,11.177626953125,0.07880161702632904,0.051312681287527084,0.10415252298116684
1764544912431361300,11.194361328125,0.10216721147298813,0.07101308554410934,0.1388191282749176
1764544912448148700,11.211148681640625,0.13927727937698364,0.10384709388017654,0.15134187042713165
1764544912464909800,11.227909912109375,0.18127426505088806,0.13805554807186127,0.12400564551353455
1764544912481671000,11.2446708984375,0.2272418737411499,0.17150041460990906,0.076052725315094
1764544912498431700,11.261431640625,0.2684752643108368,0.21670444309711456,0.029932396486401558
1764544912515194000,11.278194091796875,0.31810808181762695,0.2480112910270691,-0.00733038317412138
1764544912531954200,11.2949541015625,0.3504839241504669,0.2877175211906433,-0.05345070734620094
1764544912548716000,11.311716064453124,0.32986724376678467,0.3449861407279968,-0.0959058403968811
1764544912565479000,11.32847900390625,0.28985556960105896,0.39354994893074036,-0.13607023656368256
1764544912582236000,11.34523583984375,0.2580905556678772,0.40591996908187866,-0.14966198801994324
1764544912598999000,11.3619990234375,0.21624629199504852,0.3735440969467163,-0.1485929638147354
1764544912615761400,11.378761474609375,0.15073099732398987,0.29367345571517944,-0.11316278576850891
1764544912632521000,11.39552099609375,0.08231408894062042,0.20234911143779755,-0.08017606288194656
1764544912649245000,11.412244873046875,0.031154127791523933,0.128434419631958,-0.04642575979232788
1764544912666044400,11.42904443359375,0.00427605677396059,0.09040805697441101,0.00366519158706069
1764544912682784300,11.4457841796875,0.00045814894838258624,0.09239336848258972,0.060933809727430344
1764544912699566600,11.462566650390626,0.02932153269648552,0.14034628868103027,0.1186605766415596
1764544912716328400,11.479328369140624,0.07009678333997726,0.19898934662342072,0.16798794269561768
1764544912733088800,11.4960888671875,0.13057245314121246,0.22663100063800812,0.1719585657119751
1764544912749839000,11.512839111328125,0.19364428520202637,0.2145664244890213,0.15577064454555511
1764544912766622500,11.52962255859375,0.2145664244890213,0.13927727937698364,0.10980302840471268
1764544912783372800,11.546372802734375,0.1840231567621231,0.01191187184303999,0.054367005825042725
1764544912800133400,11.56313330078125,0.15653422474861145,-0.08185594528913498,0.021838432177901268
1764544912816895700,11.579895751953124,0.1134682223200798,-0.11056660860776901,0.045204028487205505
1764544912833656000,11.596656005859375,0.05314527451992035,-0.09208793938159943,0.10201449692249298
1764544912850417400,11.61341748046875,-0.004428773187100887,-0.051312681287527084,0.12858712673187256
1764544912867178000,11.630177978515626,-0.038179077208042145,-0.010537425056099892,0.08261952549219131
1764544912883939800,11.64693994140625,-0.036193765699863434,0.004428773187100887,-0.03298672288656235
1764544912900681700,11.663681640625,-0.03344487398862839,0.030543262138962746,-0.1592831164598465
1764544912917463000,11.680463134765626,-0.0403171069920063,0.0656680166721344,-0.24327708780765533
1764544912934248200,11.697248291015624,-0.036041051149368286,0.11301007121801376,-0.29245173931121826
1764544912950984700,11.713984619140625,-0.02275473065674305,0.1635591685771942,-0.34315356612205505
1764544912967745800,11.730745849609375,-0.01863138936460018,0.21120665967464447,-0.417679101228714
1764544912984507400,11.74750732421875,-0.04260785132646561,0.24617868661880493,-0.5021312236785889
1764544913001266400,11.764266357421874,-0.09224065393209457,0.22540926933288574,-0.5662720799446106
1764544913018030800,11.78103076171875,-0.1598939746618271,0.15515977144241333,-0.5878050923347473
1764544913034791000,11.797791015625,-0.2041817009449005,0.06185010448098183,-0.5467243790626526
1764544913051551700,11.8145517578125,-0.23121249675750732,-0.07131851464509964,-0.4554000496864319
1764544913068313300,11.831313232421875,-0.2632829248905182,-0.17577648162841797,-0.3620903789997101
1764544913085074400,11.848074462890626,-0.2730567753314972,-0.20983220636844635,-0.31001409888267517
1764544913101834800,11.864834716796874,-0.22281309962272644,-0.27947086095809937,-0.29596421122550964
1764544913118596600,11.8815966796875,-0.12278391420841217,-0.40301835536956787,-0.304669052362442
1764544913135358000,11.89835791015625,-0.09789115190505981,-0.4801400899887085,-0.2981022298336029
1764544913152095500,11.915095458984375,-0.14187344908714294,-0.4199698567390442,-0.23197607696056366
1764544913168880000,11.931880126953125,-0.16172657907009125,-0.25244006514549255,-0.08338310569524765
1764544913185638000,11.948637939453125,-0.15012013912200928,-0.04306599870324135,0.07987063378095627
1764544913202402000,11.965402099609374,-0.17379115521907806,0.10155634582042694,0.16508632898330688
1764544913219164400,11.982164306640625,-0.19043724238872528,0.0757472887635231,0.1661553531885147
1764544913235925500,11.998925537109375,-0.17821992933750153,-0.0679587572813034,0.11316278576850891
1764544913252682500,12.0156826171875,-0.1287398487329483,-0.23457226157188416,0.047800205647945404
1764544913269453800,12.032453857421874,-0.051312681287527084,-0.38698312640190125,0.0003054326225537807
1764544913286208800,12.049208740234375,0.043218716979026794,-0.493731826543808,-0.023060163483023643
1764544913302969000,12.065968994140626,0.14263702929019928,-0.5438227653503418,-0.03634648025035858
1764544913319731500,12.0827314453125,0.21731531620025635,-0.5380195379257202,-0.04077525436878204
1764544913336492000,12.099491943359375,0.21074850857257843,-0.44715335965156555,-0.008704829961061478
1764544913353257500,12.116257568359375,0.13148874044418335,-0.2886338233947754,0.09392052888870239
1764544913370012700,12.1330126953125,0.052381694316864014,-0.16401731967926025,0.2773328125476837
1764544913386778400,12.1497783203125,-0.017867809161543846,-0.10522153973579407,0.4634940028190613
1764544913403511800,12.16651171875,-0.07528914511203766,-0.1609629988670349,0.5752823352813721
1764544913420298800,12.183298828125,-0.11575896292924881,-0.308792382478714,0.6085745096206665
1764544913437064000,12.20006396484375,-0.1440114825963974,-0.49037206172943115,0.5899431109428406
1764544913453795600,12.216795654296876,-0.15347988903522491,-0.6533203721046448,0.5412266254425049
1764544913470581800,12.233581787109374,-0.1417207419872284,-0.7609853744506836,0.48258355259895325
1764544913487343400,12.25034326171875,-0.11804971098899841,-0.7669413089752197,0.4401284158229828
1764544913504098000,12.26709814453125,-0.07757988572120667,-0.7023423314094543,0.39996400475502014
1764544913520871700,12.28387158203125,-0.018020525574684143,-0.6082690954208374,0.36972618103027344
1764544913537626400,12.30062646484375,0.032681290060281754,-0.4830417037010193,0.3703370690345764
1764544913554388500,12.317388427734375,0.07009678333997726,-0.3813326358795166,0.3854559659957886
1764544913571149000,12.334149169921876,0.03451388701796532,-0.3043636083602905,0.3576616048812866
1764544913587911000,12.350910888671875,-0.01038470957428217,-0.3868304193019867,0.3049744665622711
1764544913604646000,12.36764599609375,-0.029932396486401558,-0.5103778839111328,0.2506074607372284
1764544913621424600,12.384424560546876,-0.04077525436878204,-0.5974262356758118,0.19074267148971558
1764544913638201900,12.401201904296874,-0.0403171069920063,-0.5613851547241211,0.17180584371089935
1764544913654952700,12.41795263671875,-0.0012217304902151227,-0.4456261992454529,0.13759739696979523
1764544913671716600,12.434716552734375,0.02886338345706463,-0.36331209540367126,0.0679587572813034
1764544913688452400,12.451452392578124,0.030085112899541855,-0.32650747895240784,-0.0064140851609408855
1764544913705238300,12.46823828125,0.02733621932566166,-0.303600013256073,-0.05619960278272629
1764544913721994500,12.484994384765624,0.028405234217643738,-0.2594650089740753,-0.08261952549219131
1764544913738767000,12.50176708984375,0.02977968007326126,-0.13469578325748444,-0.07895433157682419
1764544913755520300,12.518520263671874,0.054367005825042725,0.061391957104206085,-0.05375614017248154
1764544913772286000,12.535285888671876,0.07742717117071152,0.19975294172763824,-0.0555887371301651
1764544913789045200,12.552045166015626,0.08261952549219131,0.22617286443710327,-0.12507465481758118
1764544913805805600,12.5688056640625,0.05849034711718559,0.16661348938941956,-0.2151772826910019
1764544913822568000,12.58556787109375,-0.02626720629632473,0.052228979766368866,-0.26633724570274353
1764544913839328800,12.602328857421876,-0.15729780495166779,-0.03375030308961868,-0.2548835277557373
1764544913856094000,12.619093994140625,-0.29474249482154846,-0.03344487398862839,-0.17119498550891876
1764544913872851200,12.635851318359375,-0.42699480056762695,0.02076941914856434,-0.06169738993048668
1764544913889606100,12.652606201171874,-0.5227479338645935,0.09239336848258972,0.022449297830462456
1764544913906379300,12.669379150390625,-0.5691736936569214,0.14263702929019928,0.06841690838336945
1764544913923135000,12.686135009765625,-0.5612324476242065,0.1690569519996643,0.04566217586398125
1764544913939892200,12.702892333984375,-0.5068654417991638,0.16325373947620392,-0.008704829961061478
1764544913956646400,12.719646484375,-0.4337143301963806,0.14523321390151978,-0.07208210229873657
1764544913973422800,12.7364228515625,-0.3384193480014801,0.14187344908714294,-0.14049901068210602
1764544913990179600,12.7531796875,-0.22128593921661377,0.18325957655906677,-0.2324342280626297
1764544914006935000,12.76993505859375,-0.09926560521125793,0.21303924918174744,-0.33887749910354614
1764544914023708000,12.7867080078125,-0.03329215571284294,0.23060162365436554,-0.4118759036064148
1764544914040462800,12.803462890625,-0.03955352306365967,0.2672535479068756,-0.40424007177352905
1764544914057224200,12.82022412109375,-0.08735372871160507,0.3455969989299774,-0.3170390725135803
1764544914073960200,12.836960205078125,-0.12782354652881622,0.3488040566444397,-0.23350323736667633
1764544914090741000,12.853740966796876,-0.1661553531885147,0.2548835277557373,-0.18829920887947083
1764544914107500800,12.870500732421876,-0.2050980031490326,0.14156801998615265,-0.16264286637306213
1764544914124278300,12.8872783203125,-0.2681698501110077,0.07895433157682419,-0.12782354652881622
1764544914141029600,12.904029541015625,-0.3425426781177521,0.11316278576850891,-0.10506882518529892
1764544914157777700,12.920777587890624,-0.408974289894104,0.17012597620487213,-0.08155050873756409
1764544914174560800,12.937560791015626,-0.3891211748123169,0.1869247704744339,-0.05268712714314461
1764544914191290400,12.954290283203125,-0.31230485439300537,0.20463985204696655,-0.033597588539123535
1764544914208067600,12.971067626953126,-0.20952677726745605,0.22449298202991486,-0.025656340643763542
1764544914224843800,12.98784375,-0.1036943718791008,0.2626720666885376,-0.0503963828086853
1764544914241597400,13.004597412109375,-0.011453723534941673,0.3010038435459137,-0.10476338863372803
1764544914258353200,13.021353271484376,0.05314527451992035,0.32620203495025635,-0.16325373947620392
1764544914275127000,13.038126953125,0.0887281745672226,0.32971450686454773,-0.19379699230194092
1764544914291881700,13.0548818359375,0.07910704612731934,0.2929098904132843,-0.1866193264722824
1764544914308632600,13.071632568359375,0.0455094613134861,0.24236078560352325,-0.13897185027599335
1764544914325414100,13.0884140625,0.014049900695681572,0.23075434565544128,-0.060322944074869156
1764544914342133200,13.10513330078125,0.007788531947880983,0.22250767052173615,0.01664607785642147
1764544914358904800,13.12190478515625,0.02229658141732216,0.21303924918174744,0.06811147183179855
1764544914375657500,13.138657470703125,0.06765332818031311,0.24129177629947662,0.09285151958465576
1764544914392409000,13.1554091796875,0.1293507218360901,0.28649580478668213,0.08491026610136032
1764544914409195500,13.172195556640625,0.19654589891433716,0.33139440417289734,0.041233405470848083
1764544914425977600,13.1889775390625,0.2945897579193115,0.3723223805427551,-0.02871066704392433
1764544914442744000,13.205744140625,0.3478877544403076,0.4063780903816223,-0.10842858254909515
1764544914459492600,13.22249267578125,0.37659841775894165,0.42241331934928894,-0.20112738013267517
1764544914476262400,13.239262451171875,0.41172316670417786,0.42088615894317627,-0.2770273983478546
1764544914493016300,13.256016357421874,0.4150829315185547,0.417679101228714,-0.29275718331336975
1764544914509770800,13.272770751953125,0.3672827184200287,0.4560109078884125,-0.2402227520942688
1764544914526545000,13.289544921875,0.25595253705978394,0.5413793325424194,-0.15653422474861145
1764544914543299300,13.30629931640625,0.18646661937236786,0.5842925906181335,-0.06505715101957321
1764544914560051500,13.323051513671874,0.1388191282749176,0.5940664410591125,0
1764544914576831500,13.33983154296875,0.1088867336511612,0.5754350423812866,0.024434609338641167
1764544914593583600,13.35658349609375,0.10216721147298813,0.5195409059524536,0.021074850112199783
1764544914610335700,13.373335693359374,0.11759155988693237,0.43737950921058655,0.0529925599694252
1764544914627114500,13.390114501953125,0.15317445993423462,0.36942076683044434,0.09285151958465576
1764544914643867100,13.4068671875,0.20845776796340942,0.32039880752563477,0.09636399149894714
1764544914660620500,13.42362060546875,0.2799290120601654,0.2838996350765228,0.08628471940755844
1764544914677397200,13.440397216796875,0.3491095006465912,0.26740625500679016,0.06643159687519073
1764544914694128600,13.457128662109374,0.39354994893074036,0.2736676335334778,0.05849034711718559
1764544914710911500,13.473911376953126,0.39996400475502014,0.2396118938922882,0.07147123664617538
1764544914727647700,13.490647705078125,0.3669773042201996,0.16340644657611847,0.11071932315826416
1764544914744434200,13.50743408203125,0.30344730615615845,0.10018189996480942,0.18310685455799103
1764544914761190000,13.52418994140625,0.2382374405860901,0.06643159687519073,0.27641651034355164
1764544914777962800,13.540962646484376,0.17302757501602173,0.048258353024721146,0.3585779070854187
1764544914794692900,13.55769287109375,0.14065171778202057,0.0455094613134861,0.37369680404663086
1764544914811470600,13.574470703125,0.1388191282749176,0.04337143152952194,0.3147483170032501
1764544914828249300,13.591249267578124,0.1621847152709961,0.061391957104206085,0.19746218621730804
1764544914845001500,13.60800146484375,0.1892155110836029,0.09789115190505981,0.062460970133543015
1764544914861755000,13.6247548828125,0.21013765037059784,0.13087788224220276,-0.052839845418930054
1764544914878531800,13.64153173828125,0.22357667982578278,0.1466076523065567,-0.14217889308929443
1764544914895285500,13.658285400390625,0.24174992740154266,0.13530665636062622,-0.19517144560813904
1764544914912039700,13.675039794921876,0.2638937830924988,0.13026700913906097,-0.20372356474399567
1764544914928815000,13.691815185546876,0.2837468981742859,0.10308351367712021,-0.17547103762626648
1764544914945540000,13.7085400390625,0.3208569586277008,0.04108068719506264,-0.13179416954517365
1764544914962327600,13.72532763671875,0.25931230187416077,-0.0027488935738801956,-0.13209961354732513
1764544914979087600,13.742087646484375,0.1560760736465454,-0.03680463135242462,-0.17241671681404114
1764544914995853000,13.75885302734375,0.04046982154250145,-0.08491026610136032,-0.22739458084106445
1764544915012607500,13.775607421875,-0.06169738993048668,-0.15454891324043274,-0.26313021779060364
1764544915029382100,13.792382080078125,-0.156686931848526,-0.22418753802776337,-0.28787025809288025
1764544915046130200,13.809130126953125,-0.24007004499435425,-0.3332269787788391,-0.2977968156337738
1764544915062904000,13.825904052734375,-0.30314189195632935,-0.43188172578811646,-0.30604347586631775
1764544915079658800,13.84265869140625,-0.34605515003204346,-0.4384485185146332,-0.31871894001960754
1764544915096420600,13.859420654296875,-0.35384368896484375,-0.4079052805900574,-0.3191770911216736
1764544915113181200,13.87618115234375,-0.294895201921463,-0.4334088861942291,-0.29107728600502014
1764544915129937200,13.892937255859374,-0.19853121042251587,-0.5042692422866821,-0.24113905429840088
1764544915146710300,13.909710205078126,-0.14034628868103027,-0.5520694851875305,-0.17073683440685272
1764544915163456000,13.9264560546875,-0.14034628868103027,-0.5196936130523682,-0.07696902006864548
1764544915180235500,13.943235595703126,-0.1310305893421173,-0.42500948905944824,0.00855211354792118
1764544915196959700,13.959959716796876,-0.09560041129589081,-0.31352660059928894,0.044745877385139465
1764544915213694200,13.976694091796874,-0.07009678333997726,-0.19318613409996033,0.014355333521962166
1764544915230500600,13.99350048828125,-0.044135015457868576,-0.1189660057425499,-0.04657847434282303
1764544915247271200,14.010271240234376,-0.01817324012517929,-0.15164729952812195,-0.10903944820165634
1764544915264031700,14.02703173828125,-0.0032070425804704428,-0.29336804151535034,-0.1612684279680252
1764544915280794400,14.04379443359375,-0.014508049935102463,-0.4697553813457489,-0.19104810059070587
1764544915297549800,14.0605498046875,-0.03497203439474106,-0.5962044596672058,-0.1895209401845932
1764544915314322400,14.077322509765626,-0.040164388716220856,-0.6192646622657776,-0.13545936346054077
1764544915331078000,14.094077880859375,-0.03390302136540413,-0.5539020895957947,-0.056352317333221436
1764544915347838500,14.11083837890625,-0.01038470957428217,-0.4550946056842804,0.011759156361222267
1764544915364601300,14.127601318359375,0.012522737495601177,-0.3471241891384125,0.05849034711718559
1764544915381360400,14.1443603515625,0.013133603148162365,-0.24526239931583405,0.0832303911447525
1764544915398122800,14.161122802734376,-0.0007635815418325365,-0.1745547503232956,0.09712757170200348
1764544915414875400,14.17787548828125,-0.03344487398862839,-0.14767667651176453,0.11026117950677872
1764544915431654100,14.194654052734375,-0.04260785132646561,-0.2255619913339615,0.13576480746269226
1764544915448380400,14.21138037109375,-0.0555887371301651,-0.31383201479911804,0.16050484776496887
1764544915465159700,14.22815966796875,-0.07910704612731934,-0.3830125033855438,0.1869247704744339
1764544915481901300,14.2449013671875,-0.08811730891466141,-0.4300491213798523,0.20723603665828705
1764544915498690600,14.261690673828125,-0.08032877743244171,-0.43967026472091675,0.20525072515010834
1764544915515451100,14.278451171875,-0.07376197725534439,-0.4108068645000458,0.1944078654050827
1764544915532213200,14.295213134765625,-0.06383541971445084,-0.35842517018318176,0.21120665967464447
1764544915548974600,14.311974609375,-0.04337143152952194,-0.3237585723400116,0.23411411046981812
1764544915565735000,14.32873486328125,-0.014202617108821869,-0.337503045797348,0.2499966025352478
1764544915582495500,14.34549560546875,0.0032070425804704428,-0.37598755955696106,0.26939156651496887
1764544915599263700,14.362263671875,-0.00427605677396059,-0.3937026560306549,0.2710714638233185
1764544915616001300,14.379001220703126,-0.07162395119667053,-0.3390302062034607,0.26404649019241333
1764544915632791800,14.395791748046875,-0.05421429127454758,-0.39904773235321045,0.28848111629486084
1764544915649533400,14.412533447265625,-0.032528575509786606,-0.40683624148368835,0.3066543638706207
1764544915666299400,14.42929931640625,0.005803219974040985,-0.4392121136188507,0.3361285924911499
1764544915683074600,14.446074462890625,0.04749477282166481,-0.461355984210968,0.32009339332580566
1764544915699808000,14.46280810546875,0.0910189226269722,-0.4056145250797272,0.29107728600502014
1764544915716569300,14.4795693359375,0.15195272862911224,-0.2977968156337738,0.2955060601234436
1764544915733350100,14.49635009765625,0.1889100819826126,-0.2200642079114914,0.32818734645843506
1764544915750108700,14.513108642578125,0.20357084274291992,-0.15653422474861145,0.36361753940582275
1764544915766869000,14.529868896484375,0.22189679741859436,-0.04612032696604729,0.3810271918773651
1764544915783632600,14.546632568359374,0.25961771607398987,0.1134682223200798,0.36102136969566345
1764544915800383500,14.563383544921875,0.2938261926174164,0.28909197449684143,0.2958115041255951
1764544915817162800,14.580162841796875,0.2451096773147583,0.4138612151145935,0.17409659922122955
1764544915833890600,14.596890625,0.09957103431224823,0.4043927788734436,0.02229658141732216
1764544915850675700,14.61367578125,-0.055283304303884506,0.22189679741859436,-0.11652254313230515
1764544915867438000,14.63043798828125,-0.17333301901817322,-0.023060163483023643,-0.20204368233680725
1764544915884198700,14.64719873046875,-0.27977627515792847,-0.20906862616539001,-0.20784689486026764
1764544915900960000,14.6639599609375,-0.380721777677536,-0.2616030275821686,-0.13286319375038147
1764544915917721600,14.6807216796875,-0.45631635189056396,-0.17562375962734222,-0.013591751456260681
1764544915934482200,14.697482177734376,-0.4862487316131592,-0.03237585723400116,0.11102475970983505
1764544915951234600,14.714234619140624,-0.47082439064979553,0.1420261710882187,0.19593502581119537
1764544915967993300,14.730993408203124,-0.41661009192466736,0.31810808181762695,0.2200642079114914
1764544915984747500,14.74774755859375,-0.33139440417289734,0.4888449013233185,0.18616119027137756
1764544916001527800,14.76452783203125,-0.22327125072479248,0.6142250299453735,0.10949759185314178
1764544916018284800,14.781284912109374,-0.08857546001672745,0.6780604124069214,-0.0027488935738801956
1764544916035054300,14.798054443359375,0.04856378585100174,0.5836817622184753,-0.11835514008998871
1764544916051801000,14.814801025390626,0.13607023656368256,0.34437528252601624,-0.24174992740154266
1764544916068579600,14.83157958984375,0.13500121235847473,0.07880161702632904,-0.34177911281585693
1764544916085336800,14.8483369140625,0.08429940044879913,-0.07651086896657944,-0.37262779474258423
1764544916102095400,14.865095458984374,0.00015271631127689034,-0.06673702597618103,-0.3006984293460846
1764544916118854100,14.881854248046874,-0.0910189226269722,0.08888089656829834,-0.14294247329235077
1764544916135620000,14.8986201171875,-0.17547103762626648,0.2545780837535858,0.01725694350898266
1764544916152378400,14.91537841796875,-0.23716843128204346,0.3550654351711273,0.10262536257505417
1764544916169138400,14.932138427734374,-0.2515237629413605,0.3649919927120209,0.11041389405727386
1764544916185902600,14.948902587890625,-0.24862214922904968,0.30772337317466736,0.07024950534105301
1764544916202637600,14.965637451171874,-0.256868839263916,0.21044307947158813,0.020005837082862854
1764544916219392300,14.982392333984375,-0.2548835277557373,0.11468994617462158,-0.010690141469240189
1764544916236164600,14.99916455078125,-0.15500704944133759,0.07467827945947647,-0.009162978269159794
1764544916252946000,15.01594580078125,-0.06352998316287994,0.12782354652881622,0.010995574295520782
1764544916269696500,15.032696533203126,0.01664607785642147,0.21639901399612427,0.028405234217643738
1764544916286479400,15.049479248046875,0.08185594528913498,0.2701551616191864,0.028405234217643738
1764544916303228200,15.066228271484375,0.11102475970983505,0.27580565214157104,0.027641652151942253
1764544916319977000,15.08297705078125,0.10781771689653397,0.251218318939209,0.04230241850018501
1764544916336763400,15.099763427734375,0.08811730891466141,0.21410827338695526,0.060933809727430344
1764544916353507300,15.11650732421875,0.08704829961061478,0.17623461782932281,0.07528914511203766
1764544916370252800,15.133252685546875,0.11530081182718277,0.1722639948129654,0.07757988572120667
1764544916387046000,15.1500458984375,0.15042556822299957,0.19028452038764954,0.06383541971445084
1764544916403798000,15.166798095703125,0.18539759516716003,0.20952677726745605,0.02825251780450344
1764544916420517400,15.183517333984375,0.22632557153701782,0.22815817594528198,-0.02580905705690384
1764544916437329200,15.2003291015625,0.27259862422943115,0.27748554944992065,-0.07254024595022202
1764544916454055400,15.217055419921875,0.3116939961910248,0.34773504734039307,-0.09483683109283447
1764544916470798600,15.233798583984376,0.3349068760871887,0.4231768846511841,-0.10644327104091644
1764544916487578000,15.250578125,0.34605515003204346,0.47250425815582275,-0.13026700913906097
1764544916504365000,15.267364990234375,0.3651446998119354,0.44684791564941406,-0.15974126756191254
1764544916521122000,15.2841220703125,0.39935314655303955,0.38377609848976135,-0.1667662113904953
1764544916537892900,15.300892822265626,0.3698789179325104,0.351400226354599,-0.15622878074645996
1764544916554642700,15.317642578125,0.29245173931121826,0.3321579694747925,-0.13026700913906097
1764544916571393000,15.33439306640625,0.21639901399612427,0.3032945990562439,-0.07452555745840073
1764544916588179000,15.351178955078124,0.20570887625217438,0.26939156651496887,0.004123340360820293
1764544916604932600,15.3679326171875,0.20662516355514526,0.24358251690864563,0.1036943718791008
1764544916621663000,15.3846630859375,0.22617286443710327,0.2577851414680481,0.2018909603357315
1764544916638462000,15.4014619140625,0.27351492643356323,0.30375275015830994,0.24404066801071167
1764544916655216400,15.41821630859375,0.3280346393585205,0.36621370911598206,0.22510384023189545
1764544916671950300,15.434950439453125,0.36224308609962463,0.4329507350921631,0.18845193088054657
1764544916688741400,15.451741455078125,0.36651915311813354,0.4586070775985718,0.14340060949325562
1764544916705500700,15.468500732421875,0.33200526237487793,0.4311181604862213,0.10399980843067169
1764544916722235400,15.4852353515625,0.2583959996700287,0.32620203495025635,0.07208210229873657
1764544916738998300,15.501998291015624,0.17531833052635193,0.17516560852527618,0.07192938029766083
1764544916755784200,15.5187841796875,0.09636399149894714,0.03695734590291977,0.11499538272619247
1764544916772521000,15.53552099609375,0.018936822190880775,-0.035582900047302246,0.1817324161529541
1764544916789305000,15.55230517578125,-0.05406157299876213,-0.03787364438176155,0.24373523890972137
1764544916806069500,15.569069580078125,-0.07192938029766083,-0.005039638374000788,0.2756529450416565
1764544916822790100,15.5857900390625,-0.050243668258190155,0.04352414980530739,0.2597704529762268
1764544916839598600,15.6025986328125,-0.016951510682702065,0.09376781433820724,0.21365012228488922
1764544916856355000,15.61935498046875,0.026114489883184433,0.14126259088516235,0.17379115521907806
1764544916873076500,15.636076416015625,0.06734789162874222,0.18249599635601044,0.13469578325748444
1764544916889879000,15.652879150390625,0.10552696883678436,0.19578230381011963,0.08628471940755844
1764544916906642200,15.66964208984375,0.12690725922584534,0.18219055235385895,0.013286318629980087
1764544916923362300,15.6863623046875,0.13316862285137177,0.1609629988670349,-0.07177666574716568
1764544916940165000,15.7031650390625,0.12034045159816742,0.14584407210350037,-0.1495092660188675
1764544916956923000,15.7199228515625,0.098502017557621,0.1186605766415596,-0.20143280923366547
1764544916973654800,15.73665478515625,0.06536258012056351,0.1014036312699318,-0.23518311977386475
1764544916990444000,15.753444091796876,0.02229658141732216,0.11423180252313614,-0.2600758671760559
1764544917007203300,15.770203369140624,-0.018325956538319588,0.1598939746618271,-0.275958389043808
1764544917023988700,15.78698876953125,-0.07269296050071716,0.20723603665828705,-0.3196352422237396
1764544917040727000,15.80372705078125,-0.13576480746269226,0.15546520054340363,-0.4167627990245819
1764544917057486800,15.82048681640625,-0.2142609804868698,0.02932153269648552,-0.5360342264175415
1764544917074222300,15.837222412109375,-0.31154128909111023,-0.12049316614866257,-0.6359107494354248
1764544917091003600,15.854003662109376,-0.40301835536956787,-0.29596421122550964,-0.7015787363052368
1764544917107777500,15.870777587890625,-0.4605923891067505,-0.4795292317867279,-0.7058547735214233
1764544917124506400,15.88750634765625,-0.4740314185619354,-0.6505714654922485,-0.6612616181373596
1764544917141292000,15.9042919921875,-0.49495357275009155,-0.721737265586853,-0.5862779021263123
1764544917158055700,15.9210556640625,-0.4398229718208313,-0.7037167549133301,-0.4807509481906891
1764544917174826200,15.937826171875,-0.2981022298336029,-0.6027712821960449,-0.32360586524009705
1764544917191577000,15.9545771484375,-0.16233743727207184,-0.44364088773727417,-0.14294247329235077
1764544917208345300,15.971345458984375,-0.09972374886274338,-0.30054569244384766,-0.021532999351620674
1764544917225108000,15.98810791015625,-0.0455094613134861,-0.23319780826568604,0.013286318629980087
1764544917241875200,16.004875244140624,0.016798794269561768,-0.2295326143503189,-0.029474247246980667
1764544917258628000,16.021628173828127,0.014813481830060482,-0.27091872692108154,-0.15531249344348907
1764544917275362000,16.038362060546874,-0.027488935738801956,-0.3604104816913605,-0.2721404731273651
1764544917292144400,16.055144287109375,-0.04612032696604729,-0.4801400899887085,-0.3266601860523224
1764544917308906000,16.071906005859375,-0.056352317333221436,-0.5734497308731079,-0.3234531581401825
1764544917325663200,16.088663330078123,-0.034666601568460464,-0.6342308521270752,-0.26710084080696106
1764544917342428000,16.105427978515625,-0.0064140851609408855,-0.6548475623130798,-0.17012597620487213
1764544917359195000,16.12219482421875,0.017867809161543846,-0.6548475623130798,-0.05742133408784866
1764544917375950000,16.1389501953125,0.021991148591041565,-0.6294966340065002,0.05406157299876213
1764544917392714000,16.1557138671875,-0.021532999351620674,-0.5006040930747986,0.13347405195236206
1764544917409472500,16.172472412109375,-0.07651086896657944,-0.3878994286060333,0.2116648107767105
1764544917426233300,16.1892333984375,-0.11484266817569733,-0.33429601788520813,0.27382034063339233
1764544917442989600,16.205989501953123,-0.1488984078168869,-0.3274237811565399,0.31154128909111023
1764544917459763500,16.222763427734375,-0.1797471046447754,-0.33948835730552673,0.3179553747177124
1764544917476507400,16.23950732421875,-0.22815817594528198,-0.3741549551486969,0.28359419107437134
1764544917493260500,16.256260498046874,-0.23197607696056366,-0.5073235630989075,0.24724771082401276
1764544917510043400,16.27304345703125,-0.20005837082862854,-0.6395758986473083,0.2422080636024475
1764544917526775800,16.28977587890625,-0.1589776873588562,-0.7408268451690674,0.2860376536846161
1764544917543534000,16.3065341796875,-0.12431107461452484,-0.7748825550079346,0.3727805018424988
1764544917560299800,16.3232998046875,-0.09926560521125793,-0.7037167549133301,0.4801400899887085
1764544917577084700,16.340084716796873,-0.04444044828414917,-0.5772676467895508,0.5653557777404785
1764544917593801700,16.3568017578125,0.021991148591041565,-0.46593746542930603,0.5703954100608826
1764544917610574600,16.37357470703125,0.07941248267889023,-0.38347065448760986,0.4948008358478546
1764544917627327200,16.3903271484375,0.11407908797264099,-0.33368512988090515,0.37690386176109314
1764544917644141600,16.4071416015625,0.14676037430763245,-0.27550023794174194,0.2790127098560333
1764544917660892700,16.423892578125,0.18600846827030182,-0.19822576642036438,0.23167064785957336
1764544917677617700,16.44061767578125,0.2028072625398636,-0.17440202832221985,0.18860463798046112
1764544917694422300,16.45742236328125,0.19089539349079132,-0.19456058740615845,0.11438451707363129
1764544917711177000,16.474177001953127,0.18219055235385895,-0.22739458084106445,0.029016099870204926
1764544917727883300,16.49088330078125,0.20097467303276062,-0.206777885556221,-0.04703662544488907
1764544917744677600,16.507677734375,0.27290403842926025,-0.09056077152490616,-0.08414668589830399
1764544917761466400,16.52446630859375,0.32788193225860596,0.07757988572120667,-0.07269296050071716
1764544917786608400,16.5496083984375,0.26022860407829285,0.2223549485206604,-0.0633772686123848
1764544917803347500,16.566347412109376,0.1722639948129654,0.1895209401845932,-0.10842858254909515
1764544917820126000,16.5831259765625,0.07712173461914062,0.08704829961061478,-0.1869247704744339
1764544917836885800,16.5998857421875,-0.0328340083360672,-0.024892758578062057,-0.23426681756973267
1764544917853622300,16.616622314453124,-0.15332718193531036,-0.08124507963657379,-0.1840231567621231
1764544917870408700,16.63340869140625,-0.27000242471694946,-0.047189339995384216,-0.055741455405950546
1764544917887128600,16.650128662109374,-0.3724750876426697,0.02626720629632473,0.07391469180583954
1764544917903910100,16.66691015625,-0.4317290186882019,0.08506298810243607,0.15012013912200928
1764544917920679200,16.68367919921875,-0.4447098970413208,0.1598939746618271,0.16722436249256134
1764544917937455400,16.700455322265626,-0.4311181604862213,0.2422080636024475,0.15561792254447937
1764544917954178800,16.7171787109375,-0.41691553592681885,0.2817615866661072,0.11575896292924881
1764544917970988000,16.733988037109373,-0.37797287106513977,0.26419922709465027,0.044135015457868576
1764544917987737900,16.75073779296875,-0.2825251817703247,0.19853121042251587,-0.04993823543190956
1764544918004466200,16.767466064453124,-0.18035796284675598,0.17760907113552094,-0.17256943881511688
1764544918021267200,16.78426708984375,-0.12492194026708603,0.15943582355976105,-0.27947086095809937
1764544918038025200,16.801025146484374,-0.13927727937698364,0.1235474944114685,-0.3078760802745819
1764544918054760400,16.817760498046876,-0.2096794992685318,0.1270599663257599,-0.2591595947742462
1764544918071534000,16.8345341796875,-0.2692388594150543,0.18325957655906677,-0.18677204847335815
1764544918088312800,16.851312744140625,-0.275958389043808,0.21853704750537872,-0.09239336848258972
1764544918105076500,16.868076416015626,-0.2889392673969269,0.24953845143318176,-0.0012217304902151227
1764544918121832700,16.884832763671874,-0.3196352422237396,0.2845104932785034,0.060933809727430344
1764544918138557000,16.901556884765625,-0.35262197256088257,0.29626965522766113,0.06215553730726242
1764544918155353000,16.91835302734375,-0.3776674270629883,0.27748554944992065,0.017562376335263252
1764544918172086000,16.9350859375,-0.32528573274612427,0.21120665967464447,-0.02122756652534008
1764544918188878600,16.951878662109376,-0.17898350954055786,0.1976149082183838,-0.022602014243602753
1764544918205617700,16.96861767578125,-0.017409659922122955,0.2382374405860901,0.006261368747800589
1764544918222395400,16.9853955078125,0.13209961354732513,0.29367345571517944,0.016493361443281174
1764544918239157500,17.002157470703125,0.2571742534637451,0.35735616087913513,-0.01160643994808197
1764544918255883500,17.018883544921874,0.3321579694747925,0.41951170563697815,-0.05054909735918045
1764544918272678100,17.03567822265625,0.35063666105270386,0.4662429094314575,-0.06551529467105865
1764544918289443000,17.052443115234375,0.32940909266471863,0.484416127204895,-0.05161811411380768
1764544918306196200,17.0691962890625,0.34605515003204346,0.4329507350921631,-0.02015855349600315
1764544918322953500,17.085953369140626,0.3049744665622711,0.39645153284072876,0.003054326167330146
1764544918339734800,17.10273486328125,0.2525927722454071,0.32986724376678467,0.022449297830462456
1764544918356462300,17.11946240234375,0.20876319706439972,0.25824329257011414,0.028099801391363144
1764544918373247000,17.1362470703125,0.2102903574705124,0.2194533348083496,0.014508049935102463
1764544918389984800,17.15298486328125,0.23900102078914642,0.2561052441596985,-0.012828170321881771
1764544918406751700,17.169751708984375,0.2837468981742859,0.3588833212852478,-0.04199698567390442
1764544918423506200,17.186506103515626,0.3413209617137909,0.48288896679878235,-0.07147123664617538
1764544918440292600,17.203292724609376,0.39125919342041016,0.5590944290161133,-0.1059851199388504
1764544918457028600,17.220028564453123,0.4199698567390442,0.5589417219161987,-0.14095716178417206
1764544918473783800,17.23678369140625,0.5036584138870239,0.5180137157440186,-0.06230825558304787
1764544918490582300,17.253582275390624,0.6154467463493347,0.8344419002532959,0.1771509200334549
1764544918507315500,17.2703154296875,0.3274237811565399,0.5804746747016907,-0.012828170321881771
1764544918524099000,17.28709912109375,0.16798794269561768,0.16462817788124084,-0.22907446324825287
1764544918540860700,17.303860595703124,0.10949759185314178,0.11743884533643723,-0.08002334833145142
1764544918557630000,17.3206298828125,0.0705549344420433,0.20295998454093933,0.12110403180122375
1764544918574357500,17.337357421875,0.05971207842230797,0.2713768780231476,0.20005837082862854
1764544918591143700,17.354143798828126,0.04230241850018501,0.2967278063297272,0.17592918872833252
1764544918607921700,17.370921630859375,0.06551529467105865,0.39156460762023926,0.1212567538022995
1764544918624667100,17.387667236328124,0.06902777403593063,0.4265366494655609,0.06994406878948212
1764544918641387800,17.4043876953125,0.045204028487205505,0.4384485185146332,0.04230241850018501
1764544918658182100,17.42118212890625,0.011453723534941673,0.3956879675388336,0.04230241850018501
1764544918674930400,17.437930419921877,0.04459316283464432,0.14676037430763245,0.03726277872920036
1764544918691712000,17.4547119140625,0.09376781433820724,-0.06841690838336945,-0.02779436856508255
1764544918708447500,17.471447509765625,0.09224065393209457,-0.15424346923828125,-0.08429940044879913
1764544918725234000,17.48823388671875,-0.04046982154250145,-0.1082758679986,-0.06688974797725677
1764544918741990000,17.504989990234375,-0.21334469318389893,-0.04230241850018501,-0.10125091671943665
1764544918758761500,17.521761474609374,-0.15164729952812195,-0.001679879380390048,-0.11392636597156525
1764544918775512000,17.538511962890624,-0.1014036312699318,0.1007927656173706,-0.08765916526317596
1764544918792286200,17.5552861328125,-0.06536258012056351,0.19853121042251587,-0.07483099400997162
1764544918809016000,17.57201611328125,-0.003512475173920393,0.2583959996700287,-0.12629638612270355
1764544918825805800,17.588805908203124,0.031612277030944824,0.32421672344207764,-0.3617849349975586
1764544918842565000,17.605565185546876,-0.07941248267889023,0.12431107461452484,-0.47051894664764404
1764544918859287800,17.622287841796876,-0.1615738570690155,-0.13973543047904968,-0.5355761051177979
1764544918876086300,17.639086181640625,-0.2646573781967163,-0.2122756689786911,-0.651029646396637
1764544918892820700,17.65582080078125,-0.3686571717262268,-0.3930917978286743,-0.6097962260246277
1764544918909596700,17.6725966796875,-0.3767511546611786,-0.4758640229701996,-0.6905831694602966
1764544918926348500,17.6893486328125,-0.413555771112442,-0.6594290137290955,-0.6085745096206665
1764544918943131400,17.70613134765625,-0.46379944682121277,-0.7452555894851685,-0.37919458746910095
1764544918959868700,17.72286865234375,-0.3579670190811157,-0.7225008606910706,-0.1915062516927719
1764544918976652000,17.739652099609376,-0.17516560852527618,-0.6690501570701599,-0.01466076634824276
1764544918993409300,17.7564091796875,-0.15577064454555511,-0.5050328373908997,0.1768454909324646
1764544919010164500,17.77316455078125,-0.16050484776496887,-0.28328874707221985,0.3494149148464203
1764544919026912300,17.789912353515625,-0.10231992602348328,-0.05253441259264946,0.43127086758613586
1764544919043693000,17.806693115234374,-0.01817324012517929,0.0734565481543541,0.32299500703811646
1764544919060441000,17.823441162109376,0.014202617108821869,0.06520986557006836,0.011453723534941673
1764544919077216000,17.840216064453124,-0.0010690141934901476,-0.11194105446338654,-0.304210901260376
1764544919093963500,17.856963623046877,-0.024129176512360573,-0.3306308090686798,-0.517861008644104
1764544919110718700,17.87371875,-0.018478672951459885,-0.5015203952789307,-0.5479460954666138
1764544919127505400,17.89050537109375,0.015577063895761967,-0.5874996781349182,-0.3901901841163635
1764544919144249300,17.907249267578123,0.07238753139972687,-0.6081163287162781,-0.17730364203453064
1764544919161005000,17.924005126953126,0.1010981947183609,-0.6015495657920837,0.016340645030140877
1764544919177763800,17.940763916015626,0.05864306539297104,-0.527634859085083,0.12278391420841217
1764544919194550800,17.95755078125,0.011301007121801376,-0.38347065448760986,0.17348572611808777
1764544919211289000,17.9742890625,-0.01237002108246088,-0.1976149082183838,0.20097467303276062
1764544919228073500,17.991073486328126,-0.016493361443281174,-0.06215553730726242,0.2142609804868698
1764544919244825600,18.00782568359375,-0.036041051149368286,-0.01466076634824276,0.23671028017997742
1764544919261579300,18.024579345703124,-0.06704246252775192,-0.03573561832308769,0.26083946228027344
1764544919278357500,18.041357421875,-0.09254608303308487,-0.17043140530586243,0.2664899528026581
1764544919295118800,18.058118896484373,-0.12431107461452484,-0.3459024429321289,0.24556782841682434
1764544919311905500,18.074905517578124,-0.1388191282749176,-0.4990769028663635,0.23579397797584534
1764544919328641300,18.091641357421874,-0.10567969083786011,-0.6172793507575989,0.2574796974658966
1764544919345403000,18.10840283203125,-0.043218716979026794,-0.6385068893432617,0.2854267954826355
1764544919362186200,18.125186279296877,-0.06062837690114975,-0.4674646258354187,0.31154128909111023
1764544919378925000,18.141925048828124,-0.0039706239476799965,-0.33337971568107605,0.3842342495918274
1764544919395660800,18.158660888671875,0.05849034711718559,-0.1950187236070633,0.4260784983634949
1764544919412463600,18.175463623046873,0.0731511116027832,-0.11652254313230515,0.38499781489372253
1764544919429184800,18.192184814453125,0.055894169956445694,-0.21471913158893585,0.2692388594150543
1764544919445970400,18.208970458984375,0.023365596309304237,-0.3764457106590271,0.15332718193531036
1764544919462726100,18.22572607421875,0.030543262138962746,-0.41691553592681885,0.1215621829032898
1764544919479499300,18.242499267578125,0.06719517707824707,-0.3758348524570465,0.14233160018920898
1764544919496252000,18.259251953125,0.08674286305904388,-0.33078351616859436,0.12522737681865692
1764544919513005600,18.276005615234375,0.10170906037092209,-0.28787025809288025,0.078343465924263
1764544919529770800,18.292770751953125,0.13561208546161652,-0.2142609804868698,0.022602014243602753
1764544919546545000,18.309544921875,0.20372356474399567,-0.06062837690114975,-0.013133603148162365
1764544919563299300,18.32629931640625,0.3136793076992035,0.11804971098899841,-0.01114829070866108
1764544919580061000,18.34306103515625,0.3413209617137909,0.2451096773147583,-0.006108652334660292
1764544919596820500,18.359820556640624,0.2926044464111328,0.28069257736206055,-0.01572977937757969
1764544919613583000,18.3765830078125,0.19624045491218567,0.1495092660188675,-0.02977968007326126
1764544919630345700,18.393345703125,0.046273041516542435,-0.05100724846124649,-0.06780604273080826
1764544919655493600,18.41849365234375,-0.18860463798046112,-0.20143280923366547,-0.09437867999076843
1764544919672248000,18.435248046875,-0.32162055373191833,-0.1742493063211441,-0.03130684420466423
1764544919689009200,18.452009033203126,-0.4147774875164032,-0.10262536257505417,0.07788532227277756
1764544919705770500,18.4687705078125,-0.4960225820541382,0.004886921960860491,0.166460782289505
1764544919722531600,18.485531494140623,-0.46471574902534485,0.11820242553949356,0.19547687470912933
1764544919739293700,18.502293701171876,-0.4196644127368927,0.1872301995754242,0.19914206862449646
1764544919756055000,18.519054931640625,-0.4106541574001312,0.18906278908252716,0.1514945775270462
1764544919772813600,18.5358134765625,-0.36071592569351196,0.16493362188339233,0.04505131021142006
1764544919789541600,18.552541748046874,-0.303600013256073,0.10690141469240189,0.031612277030944824
1764544919806338800,18.5693388671875,-0.1950187236070633,0.1823432743549347,0.017562376335263252
1764544919823083000,18.5860830078125,-0.07956519722938538,0.19288070499897003,0.02825251780450344
1764544919839839500,18.602839599609375,0.016493361443281174,0.20570887625217438,0.04230241850018501
1764544919856624000,18.6196240234375,0.0858265683054924,0.1316414624452591,0.08765916526317596
1764544919873384000,18.636384033203125,0.07635815441608429,0.14477506279945374,0.11423180252313614
1764544919890134500,18.653134521484375,0.05268712714314461,0.1498146951198578,0.15683965384960175
1764544919906903800,18.66990380859375,0.024587325751781464,0.07437284290790558,0.21181751787662506
1764544919923668200,18.686668212890623,-0.04382958263158798,0.08964447677135468,0.22052235901355743
1764544919940392700,18.703392822265624,-0.12507465481758118,0.16172657907009125,0.18707747757434845
1764544919957190400,18.7201904296875,-0.21319197118282318,0.1966986060142517,0.14385876059532166
1764544919973926400,18.736926513671875,-0.26603180170059204,0.21044307947158813,0.13454307615756989
1764544919990672400,18.75367236328125,-0.2344195395708084,0.14935655891895294,0.15974126756191254
1764544920007473700,18.7704736328125,-0.1638645976781845,0.13820825517177582,0.18478673696517944
1764544920024236500,18.787236572265623,-0.055894169956445694,0.13469578325748444,0.1963931769132614
1764544920040951600,18.80395166015625,0.02519819140434265,0.18509216606616974,0.1889100819826126
1764544920057758500,18.820758544921876,0.10522153973579407,0.27809640765190125,0.13377949595451355
1764544920074518800,18.837518798828125,0.14996741712093353,0.3219259977340698,0.04841107130050659
1764544920091264000,18.854263916015626,0.14187344908714294,0.30741792917251587,-0.03649919852614403
1764544920108041700,18.871041748046874,0.08414668589830399,0.20845776796340942,-0.10216721147298813
1764544920124804000,18.88780419921875,0.003512475173920393,0.12324206531047821,-0.1547016203403473
1764544920141532000,18.904531982421876,-0.044287730008363724,0.09437867999076843,-0.1615738570690155
1764544920158335000,18.9213349609375,-0.055894169956445694,0.09010262042284012,-0.12889257073402405
1764544920175087600,18.938087646484377,-0.04917465150356293,0.11270463466644287,-0.09224065393209457
1764544920191820300,18.9548203125,-0.014202617108821869,0.16569720208644867,-0.076052725315094
1764544920208610000,18.971610107421874,0.06123924255371094,0.18585574626922607,-0.06780604273080826
1764544920225372200,18.9883720703125,0.11301007121801376,0.1794416606426239,-0.07024950534105301
1764544920242097700,19.00509765625,0.14569136500358582,0.28787025809288025,-0.11102475970983505
1764544920258894800,19.021894775390624,0.2028072625398636,0.423329621553421,-0.164170041680336
1764544920275655200,19.0386552734375,0.21899518370628357,0.5002986192703247,-0.182648703455925
1764544920292408600,19.05540869140625,0.2324342280626297,0.5363397002220154,-0.18157969415187836
1764544920309178000,19.07217822265625,0.24465152621269226,0.5264131426811218,-0.17088955640792847
1764544920325914000,19.0889140625,0.23396138846874237,0.45875978469848633,-0.16035212576389313
1764544920342656500,19.105656494140625,0.2587014436721802,0.35643985867500305,-0.15164729952812195
1764544920359456300,19.122456298828126,0.21441370248794556,0.33399057388305664,-0.13179416954517365
1764544920376229400,19.1392294921875,0.19715675711631775,0.32299500703811646,-0.08964447677135468
1764544920392983000,19.155983154296877,0.22861631214618683,0.38011088967323303,-0.014813481830060482
1764544920409747200,19.172747314453126,0.26893341541290283,0.45005497336387634,0.0633772686123848
1764544920426514200,19.18951416015625,0.3072652220726013,0.4908302128314972,0.10705413669347763
1764544920443266600,19.2062666015625,0.33826664090156555,0.5204572081565857,0.12018773704767227
1764544920460030500,19.223030517578124,0.3816380500793457,0.5458080768585205,0.09743300825357437
1764544920476788200,19.239788330078124,0.3995058834552765,0.5464189648628235,0.052381694316864014
1764544920493525200,19.256525146484375,0.37690386176109314,0.4964807331562042,0.01863138936460018
1764544920510314000,19.27331396484375,0.2952006161212921,0.4072943925857544,-0.014202617108821869
1764544920527075300,19.290075439453126,0.1765400618314743,0.2376265823841095,-0.03726277872920036
1764544920543804700,19.3068046875,0.036651913076639175,-0.001527163083665073,-0.015577063895761967
1764544920560596700,19.3235966796875,-0.09514226019382477,-0.17531833052635193,0.06322455406188965
1764544920577341000,19.3403408203125,-0.16982053220272064,-0.2551889419555664,0.16264286637306213
1764544920594102300,19.357102294921877,-0.1992947906255722,-0.247094988822937,0.23380866646766663
1764544920610882000,19.373882080078126,-0.2041817009449005,-0.1368338167667389,0.28420504927635193
1764544920627643100,19.39064306640625,-0.17577648162841797,-0.01817324012517929,0.3202461004257202
1764544920644363800,19.40736376953125,-0.10277807712554932,0.06368270516395569,0.3032945990562439
1764544920661172700,19.4241728515625,-0.010231993161141872,0.12293662875890732,0.2255619913339615
1764544920677926700,19.4409267578125,0.0907134860754013,0.15729780495166779,0.12431107461452484
1764544920694653700,19.45765380859375,0.17256943881511688,0.21273382008075714,0.036041051149368286
1764544920711449900,19.474449951171874,0.2324342280626297,0.2838996350765228,-0.039095375686883926
1764544920728211200,19.491211181640626,0.26404649019241333,0.32421672344207764,-0.10613783448934555
1764544920744940000,19.50793994140625,0.26313021779060364,0.2938261926174164,-0.17516560852527618
1764544920761709000,19.524708984375,0.19425514340400696,0.17043140530586243,-0.2243402600288391
1764544920778469400,19.541469482421874,0.014049900695681572,0.01572977937757969,-0.27351492643356323
1764544920795228200,19.558228271484374,-0.16019940376281738,-0.164170041680336,-0.33460143208503723
1764544920812006400,19.57500634765625,-0.24816401302814484,-0.33567044138908386,-0.3556762933731079
1764544920828740600,19.59174072265625,-0.24617868661880493,-0.4360050559043884,-0.30222558975219727
1764544920845529000,19.608529052734376,-0.2197587788105011,-0.4550946056842804,-0.22311852872371674
1764544920862277000,19.625277099609374,-0.20463985204696655,-0.4473060667514801,-0.2073887437582016
1764544920879023000,19.642023193359375,-0.18524488806724548,-0.47250425815582275,-0.2431243658065796
1764544920895802400,19.65880224609375,-0.1514945775270462,-0.5143485069274902,-0.25274550914764404
1764544920912574700,19.67557470703125,-0.10766500234603882,-0.5395467281341553,-0.18600846827030182
1764544920929335300,19.692335205078123,-0.035124752670526505,-0.5297728776931763,-0.06169738993048668
1764544920946082800,19.709082763671876,0.07299839705228806,-0.46303585171699524,0.08964447677135468
1764544920962870500,19.72587060546875,0.1644754707813263,-0.32879820466041565,0.20494529604911804
1764544920979631600,19.742631591796876,0.15561792254447937,-0.20372356474399567,0.2298380434513092
1764544920996384500,19.759384521484375,0.1362229436635971,-0.18081611394882202,0.16691893339157104
1764544921013147400,19.7761474609375,0.11056660860776901,-0.27320948243141174,0.05467243865132332
1764544921029916200,19.792916259765626,0.08888089656829834,-0.3975205719470978,-0.06994406878948212
1764544921055062800,19.818062744140626,0.03695734590291977,-0.4879286289215088,-0.2197587788105011
1764544921071810000,19.83481005859375,0.006872233934700489,-0.470060795545578,-0.2768746614456177
1764544921088580000,19.851580078125,-0.009926560334861279,-0.45753806829452515,-0.2715296149253845
1764544921105341700,19.868341796875,-0.015882495790719986,-0.4677700698375702,-0.21563543379306793
1764544921122106600,19.885106689453124,-0.024434609338641167,-0.4827362596988678,-0.14355333149433136
1764544921138864000,19.901864013671876,-0.07742717117071152,-0.41828998923301697,-0.10231992602348328
1764544921155625700,19.918625732421877,-0.13820825517177582,-0.3286454975605011,-0.06398813426494598
1764544921172384000,19.935384033203125,-0.15012013912200928,-0.2915354371070862,0.004428773187100887
1764544921189120000,19.9521201171875,-0.11972958594560623,-0.26022860407829285,0.08277224004268646
1764544921205916000,19.968916015625,-0.07024950534105301,-0.29046642780303955,0.15103642642498016
1764544921222634000,19.985634033203127,-0.044135015457868576,-0.3194825351238251,0.18875735998153687
1764544921239432700,20.0024326171875,-0.044745877385139465,-0.2961169183254242,0.2197587788105011
1764544921256193000,20.019193115234376,-0.05100724846124649,-0.2675589919090271,0.23594669997692108
1764544921272929300,20.03592919921875,-0.06123924255371094,-0.2652682363986969,0.23289237916469574
1764544921289710000,20.0527099609375,-0.0705549344420433,-0.3127630054950714,0.2021963894367218
1764544921306484200,20.069484130859376,-0.0754418596625328,-0.3703370690345764,0.15347988903522491
1764544921323204000,20.0862041015625,-0.06429356336593628,-0.4242459237575531,0.12660181522369385
1764544921340000300,20.103000244140624,-0.03695734590291977,-0.43127086758613586,0.13377949595451355
1764544921356761900,20.119761962890625,0.0074830991216003895,-0.3481931984424591,0.18280142545700073
1764544921373498000,20.136498046875,0.062460970133543015,-0.19456058740615845,0.2587014436721802
1764544921390284300,20.1532841796875,0.10461067408323288,-0.06368270516395569,0.2929098904132843
1764544921407046000,20.1700458984375,0.11514809727668762,-0.02626720629632473,0.25335636734962463
1764544921423780600,20.186780517578125,0.10399980843067169,-0.08017606288194656,0.1788308024406433
1764544921440543200,20.203543212890626,0.09560041129589081,-0.15317445993423462,0.1111774742603302
1764544921457329700,20.22032958984375,0.11178833991289139,-0.14355333149433136,0.08964447677135468
1764544921474065000,20.23706494140625,0.17470745742321014,-0.1270599663257599,0.07849618047475815
1764544921490852400,20.253852294921874,0.20372356474399567,-0.14004085958003998,0.05161811411380768
1764544921507613700,20.27061376953125,0.2148718535900116,-0.1466076523065567,0.019853120669722557
1764544921524348400,20.287348388671877,0.23671028017997742,-0.10018189996480942,-0.001832595793530345
1764544921541127200,20.304127197265625,0.25442537665367126,0.03145955875515938,0.003054326167330146
1764544921557907000,20.320906982421874,0.289244681596756,0.15913039445877075,0.038637228310108185
1764544921574636300,20.33763623046875,0.28619036078453064,0.22479841113090515,0.07269296050071716
1764544921591420000,20.354419921875,0.2811507284641266,0.21013765037059784,0.07696902006864548
1764544921608181800,20.371181640625,0.26313021779060364,0.12858712673187256,0.03756821155548096
1764544921624917000,20.3879169921875,0.23136521875858307,0.01618792861700058,-0.010231993161141872
1764544921641704700,20.40470458984375,0.18295414745807648,-0.05971207842230797,-0.041691552847623825
1764544921658465500,20.421465576171876,0.1082758679986,-0.08552113175392151,-0.05207626149058342
1764544921675201000,20.438200927734375,0.06582073122262955,-0.07987063378095627,-0.013439035043120384
1764544921691988200,20.45498828125,0.02076941914856434,-0.05955936014652252,0.06658431142568588
1764544921708750000,20.47175,-0.018325956538319588,-0.02977968007326126,0.14584407210350037
1764544921725490700,20.48849072265625,-0.060322944074869156,0.02519819140434265,0.19288070499897003
1764544921742272500,20.5052724609375,-0.10399980843067169,0.07498370856046677,0.20402899384498596
1764544921759034000,20.5220341796875,-0.1463022232055664,0.10644327104091644,0.18524488806724548
1764544921775770600,20.5387705078125,-0.17623461782932281,0.11636982858181,0.16829337179660797
1764544921792552400,20.555552490234376,-0.20051652193069458,0.12400564551353455,0.20494529604911804
1764544921809322000,20.572322021484375,-0.24617868661880493,0.17760907113552094,0.21181751787662506
1764544921826053000,20.58905322265625,-0.2906191349029541,0.2444988191127777,0.2076941877603531
1764544921842840600,20.605840576171875,-0.3323107063770294,0.26419922709465027,0.1713477075099945
1764544921859601400,20.622601318359376,-0.3625485301017761,0.23671028017997742,0.12492194026708603
1764544921876337000,20.6393369140625,-0.3830125033855438,0.19226983189582825,0.10659598559141159
1764544921893124900,20.656124755859373,-0.3933972120285034,0.16982053220272064,0.1036943718791008
1764544921909880000,20.672880126953125,-0.395077109336853,0.1618792861700058,0.07910704612731934
1764544921926627000,20.689626953125,-0.35735616087913513,0.12278391420841217,0.020005837082862854
1764544921943383000,20.706383056640625,-0.3139847218990326,0.07819075137376785,-0.04306599870324135
1764544921960169700,20.723169677734376,-0.25763240456581116,0.05146539583802223,-0.07864890247583389
1764544921976929000,20.739928955078124,-0.21074850857257843,0.07024950534105301,-0.08231408894062042
