time,seconds_elapsed,z,y,x
1764544901402611000,0.16561083984375,8.675178527832031,4.455435752868652,-0.372682124376297
1764544901419702500,0.18270263671875,9.159725189208984,4.422534465789795,-0.48095735907554626
1764544901436788500,0.19978857421875,9.93679428100586,4.387240409851074,-0.2602194547653198
1764544901453879800,0.2168798828125,10.49671459197998,4.506881237030029,-0.42831525206565857
1764544901470975700,0.233975830078125,9.630513191223145,4.5924248695373535,-0.04307080805301666
1764544901488093000,0.251093017578125,8.59920597076416,4.700700283050537,-0.17288143932819366
1764544901505197300,0.268197265625,8.017151832580566,5.054239749908447,-0.45164528489112854
1764544901522301400,0.285301513671875,8.481958389282227,5.160121917724609,-0.8231309652328491
1764544901539388700,0.302388671875,8.873184204101562,4.908875465393066,-0.7082754969596863
1764544901556494800,0.319494873046875,8.746963500976562,4.466801643371582,-0.42771705985069275
1764544901573579500,0.33657958984375,8.796614646911621,4.222733974456787,-0.46420758962631226
1764544901590688000,0.35368798828125,9.013164520263672,4.645066738128662,-0.5940182209014893
1764544901607783200,0.370783203125,8.596813201904297,4.625326156616211,-1.0432707071304321
1764544901624880000,0.387880126953125,8.59322452545166,4.652843475341797,-0.9559326171875
1764544901641970700,0.404970703125,8.305487632751465,4.5583271980285645,-0.6125625967979431
1764544901659054800,0.422054931640625,7.9585280418396,4.226921081542969,-0.3116651475429535
1764544901676169500,0.43916943359375,8.996415138244629,4.000201225280762,0.5676971673965454
1764544901693258500,0.456258544921875,9.601799011230469,3.6610186100006104,0.41874396800994873
1764544901710361000,0.473361083984375,9.552745819091797,3.814159393310547,0.9182456731796265
1764544901727447000,0.490447021484375,8.753543853759766,3.6466617584228516,1.262213945388794
1764544901744553700,0.5075537109375,8.26660442352295,3.895515203475952,0.7256234884262085
1764544901761653200,0.5246533203125,7.892725467681885,4.28734016418457,0.6041877269744873
1764544901778721800,0.5417216796875,8.589634895324707,4.569094657897949,0.09212367236614227
1764544901795839700,0.55883984375,8.861818313598633,4.910071849822998,-0.4331009089946747
1764544901812934000,0.575933837890625,9.08554744720459,5.230112075805664,-0.7603194117546082
1764544901830024200,0.593024169921875,9.352945327758789,5.557928562164307,-0.6885347366333008
1764544901847127600,0.61012744140625,8.214560508728027,5.444868087768555,0.06939185410737991
1764544901864229600,0.627229736328125,7.703094482421875,4.1036906242370605,1.5583257675170898
1764544901881316400,0.64431640625,8.056035995483398,3.7322051525115967,1.662413477897644
1764544901898422300,0.66142236328125,9.257232666015625,3.9218363761901855,1.4171491861343384
1764544901915510800,0.6785107421875,10.776076316833496,3.6981074810028076,1.8765711784362793
1764544901932596200,0.69559619140625,10.75394344329834,3.7190446853637695,1.6546368598937988
1764544901949712000,0.7127119140625,9.9469633102417,3.8057844638824463,1.2029916048049927
1764544901966801200,0.72980126953125,9.722038269042969,2.964707374572754,2.3784656524658203
1764544901983897900,0.74689794921875,9.855438232421875,2.132004976272583,2.6386852264404297
1764544902001000000,0.764,10.136594772338867,1.657029628753662,3.1453654766082764
1764544902018092000,0.781092041015625,10.17009449005127,1.2711870670318604,3.6029927730560303
1764544902035180500,0.7981806640625,9.77707290649414,0.7525427341461182,3.8398821353912354
1764544902052289800,0.815289794921875,8.777471542358398,0.3164508044719696,4.119842529296875
1764544902069380000,0.832380126953125,7.945367813110352,0.18005990982055664,4.271786689758301
1764544902086475800,0.849475830078125,7.801199913024902,1.5098711252212524,3.1716864109039307
1764544902103574800,0.86657470703125,7.985447406768799,2.2157537937164307,2.6153552532196045
1764544902120666000,0.883666015625,8.22293472290039,2.280359983444214,2.799004316329956
1764544902137763000,0.90076318359375,9.201001167297363,2.289931297302246,2.0644078254699707
1764544902154856000,0.91785595703125,9.882955551147461,2.1547367572784424,0.5210371017456055
1764544902171964200,0.934964111328125,10.810772895812988,1.9022940397262573,0.27756741642951965
1764544902189060600,0.952060546875,10.433304786682129,2.6703901290893555,1.1443674564361572
1764544902206160100,0.96916015625,9.789037704467773,2.7834508419036865,1.3094722032546997
1764544902223271000,0.98627099609375,9.857831001281738,2.9288148880004883,1.638485312461853
1764544902240381000,1.003380859375,9.562317848205566,2.8348965644836426,1.8717855215072632
1764544902257346600,1.0203466796875,9.437292098999023,2.472383975982666,1.1928220987319946
1764544902274126800,1.037126953125,9.460023880004883,2.633899450302124,1.2275179624557495
1764544902290870000,1.0538701171875,9.2859468460083,2.861815929412842,1.710868239402771
1764544902307650600,1.070650634765625,9.18006420135498,2.5046870708465576,1.893320918083191
1764544902324417500,1.08741748046875,9.56770133972168,2.348555326461792,2.7589244842529297
1764544902341148000,1.10414794921875,8.995817184448242,2.2989044189453125,2.717050075531006
1764544902357916000,1.120916015625,8.851649284362793,2.26959228515625,2.857628345489502
1764544902374699800,1.13769970703125,8.81814956665039,1.669592022895813,3.5222349166870117
1764544902391432200,1.15443212890625,8.661419868469238,1.633699655532837,3.641875982284546
1764544902408191700,1.171191650390625,8.85224723815918,1.9992033243179321,3.3379876613616943
1764544902433332700,1.196332763671875,9.007183074951172,3.456432342529297,4.118646144866943
1764544902450096600,1.2130966796875,6.799803733825684,5.681159019470215,-1.3232308626174927
1764544902466863900,1.22986376953125,7.641479015350342,8.854640007019043,-1.8442680835723877
1764544902483644700,1.246644775390625,7.782057285308838,4.174877166748047,3.0203404426574707
1764544902500405800,1.26340576171875,9.754940032958984,3.985844373703003,2.2648067474365234
1764544902517175000,1.280175048828125,9.277571678161621,4.249054908752441,2.4610180854797363
1764544902533929000,1.296928955078125,8.088936805725098,4.587040901184082,1.963310956954956
1764544902550688800,1.313688720703125,8.121838569641113,5.8923258781433105,1.41834557056427
1764544902567445800,1.33044580078125,8.289934158325195,5.095515727996826,2.0955145359039307
1764544902584211500,1.34721142578125,9.354142189025879,4.539782524108887,2.4119651317596436
1764544902600972800,1.363972900390625,9.206384658813477,4.6989054679870605,2.4059832096099854
1764544902617714000,1.3807138671875,7.491329669952393,5.439484119415283,1.893320918083191
1764544902634495000,1.397494873046875,6.288936138153076,5.782256126403809,1.4931213855743408
1764544902651255800,1.414255859375,6.9236321449279785,5.5728840827941895,1.5122638940811157
1764544902667993600,1.43099365234375,7.954938888549805,5.116453170776367,1.6510475873947144
1764544902684778500,1.447778564453125,8.145766258239746,5.234897613525391,1.8317056894302368
1764544902701539800,1.464539794921875,8.182256698608398,5.07936429977417,1.7982062101364136
1764544902718260200,1.48126025390625,7.847859859466553,5.306084156036377,1.8640087842941284
1764544902735033300,1.498033447265625,10.65523910522461,5.24626350402832,3.2368907928466797
1764544902751801000,1.514801025390625,9.76391315460205,4.234099864959717,2.816352367401123
1764544902768558600,1.53155859375,9.125627517700195,3.7459638118743896,2.940778970718384
1764544902785316400,1.54831640625,8.325227737426758,3.149552822113037,3.2518460750579834
1764544902802109700,1.565109619140625,7.46201753616333,2.2474586963653564,3.6646077632904053
1764544902818842000,1.581842041015625,8.520841598510742,2.4777679443359375,3.3338000774383545
1764544902835629300,1.59862939453125,10.000802040100098,1.0109676122665405,2.7110681533813477
1764544902852389400,1.615389404296875,9.692726135253906,1.5355939865112305,5.005186557769775
1764544902869125600,1.632125732421875,8.815756797790527,1.4374881982803345,7.018746852874756
1764544902885912300,1.648912353515625,8.021339416503906,1.5260226726531982,6.471388816833496
1764544902902673400,1.66567333984375,6.856035232543945,0.7537391185760498,4.264009952545166
1764544902919408600,1.68240869140625,6.241079807281494,0.1501496136188507,2.901895761489868
1764544902936170500,1.69917041015625,5.282155990600586,0.3397808074951172,2.54536509513855
1764544902952957200,1.715957275390625,4.261617183685303,1.4919248819351196,3.1722846031188965
1764544902969696800,1.73269677734375,4.454239368438721,2.2480568885803223,4.360321044921875
1764544902986479400,1.749479248046875,6.118447303771973,1.537388563156128,5.066802024841309
1764544903003239700,1.76623974609375,6.908677101135254,0.8967102766036987,4.603192329406738
1764544903019972400,1.782972412109375,6.041278839111328,1.1258230209350586,4.490131855010986
1764544903036740900,1.799740966796875,4.698307037353516,1.8580267429351807,4.474578380584717
1764544903053524000,1.81652392578125,5.676373481750488,2.7810580730438232,5.164309501647949
1764544903070259500,1.833259521484375,7.471588611602783,2.328216314315796,5.037489891052246
1764544903087045400,1.85004541015625,7.442874908447266,1.3866406679153442,5.2115678787231445
1764544903103804400,1.866804443359375,5.505286693572998,1.0235298871994019,5.449653625488281
1764544903120546000,1.883546142578125,4.004986763000488,1.5780665874481201,6.934998035430908
1764544903137327900,1.900327880859375,3.45882511138916,2.754737138748169,8.685946464538574
1764544903154079000,1.917078857421875,4.738387107849121,5.277370452880859,7.885547161102295
1764544903170826200,1.933826171875,6.628716945648193,3.94815731048584,8.748159408569336
1764544903187611000,1.95061083984375,9.610772132873535,3.4606196880340576,10.913065910339355
1764544903204376300,1.967376220703125,10.697113990783691,4.048655986785889,13.475778579711914
1764544903221117200,1.9841171875,9.932008743286133,5.227719306945801,14.92822265625
1764544903237896000,2.00089599609375,9.373284339904785,5.855835437774658,15.62991714477539
1764544903254632000,2.0176318359375,10.351350784301758,5.80199670791626,14.973686218261719
1764544903271393300,2.034393310546875,11.383255958557129,4.555335998535156,13.739587783813477
1764544903288180200,2.05118017578125,11.25045394897461,3.5946178436279297,13.463216781616211
1764544903304915700,2.067915771484375,9.872786521911621,2.8767709732055664,12.780065536499023
1764544903321677300,2.08467724609375,8.648259162902832,2.4155545234680176,10.773683547973633
1764544903338462700,2.101462646484375,7.3052873611450195,1.7569299936294556,8.8648099899292
1764544903355183900,2.118183837890625,6.419943332672119,1.3513466119766235,7.645666599273682
1764544903371959300,2.134959228515625,6.427719593048096,1.0289137363433838,6.847062110900879
1764544903388745500,2.151745361328125,6.482156753540039,0.6789634227752686,6.010172367095947
1764544903405474000,2.16847412109375,7.569096088409424,0.8458628058433533,5.398207664489746
1764544903422250800,2.185250732421875,9.050253868103027,0.4103690981864929,4.2000017166137695
1764544903439001600,2.202001708984375,9.302696228027344,-0.004187439568340778,2.6949164867401123
1764544903455792400,2.21879248046875,7.726424217224121,1.0869396924972534,1.5242279767990112
1764544903472526800,2.23552685546875,6.5868425369262695,1.9040886163711548,1.327418327331543
1764544903489313800,2.252313720703125,7.409973621368408,1.9226330518722534,2.105085611343384
1764544903506077000,2.269076904296875,8.303094863891602,2.1092731952667236,2.2408783435821533
1764544903522816000,2.28581591796875,8.882157325744629,1.810170292854309,2.0273189544677734
1764544903539553800,2.3025537109375,9.297910690307617,1.2849457263946533,1.604387640953064
1764544903556316400,2.31931640625,9.367302894592285,1.1318050622940063,1.195214867591858
1764544903573096000,2.336095947265625,9.080761909484863,1.2813565731048584,0.8458628058433533
1764544903589880000,2.352880126953125,8.621339797973633,1.3698909282684326,0.7854440212249756
1764544903606602800,2.369602783203125,7.826324462890625,1.7359927892684937,0.8135597109794617
1764544903623374000,2.3863740234375,7.463213920593262,2.0889341831207275,1.2251251935958862
1764544903640166400,2.40316650390625,7.834699630737305,2.3461625576019287,2.3324038982391357
1764544903656919000,2.4199189453125,7.228118896484375,3.187239646911621,2.5387847423553467
1764544903673665300,2.436665283203125,5.785246849060059,3.6610186100006104,2.672184705734253
1764544903690447000,2.453447021484375,5.429912567138672,3.4737801551818848,2.0811574459075928
1764544903707204400,2.470204345703125,7.620542049407959,2.8354947566986084,2.0889341831207275
1764544903723944000,2.48694384765625,9.107681274414062,2.424527645111084,2.2055842876434326
1764544903740730400,2.50373046875,9.166305541992188,2.8624141216278076,1.1575279235839844
1764544903757491200,2.5204912109375,8.264211654663086,3.3619158267974854,0.8141579031944275
1764544903774237400,2.537237548828125,8.423932075500488,3.4103705883026123,1.1581261157989502
1764544903791017700,2.554017822265625,9.04845905303955,3.5132617950439453,1.6713865995407104
1764544903807746800,2.570746826171875,7.994420528411865,3.724428415298462,1.8293129205703735
1764544903824514000,2.58751416015625,6.44686222076416,4.381258487701416,2.8660032749176025
1764544903841297700,2.604297607421875,5.380859851837158,4.493122577667236,3.1968109607696533
1764544903858032600,2.62103271484375,5.131408214569092,4.267599105834961,3.6945180892944336
1764544903874801200,2.63780126953125,5.054837703704834,3.362514019012451,3.417548894882202
1764544903891580700,2.65458056640625,5.237888813018799,2.1206390857696533,2.3886351585388184
1764544903908342000,2.671342041015625,6.060421466827393,1.1084750890731812,1.8239290714263916
1764544903925077000,2.688076904296875,5.7062835693359375,0.33379876613616943,1.578664779663086
1764544903941840100,2.704840087890625,5.678168296813965,-0.8081758618354797,1.5708880424499512
1764544903958625000,2.721625,5.743372440338135,-1.1312068700790405,2.578864574432373
1764544903975396400,2.738396240234375,5.066802024841309,-1.2436695098876953,3.06999135017395
1764544903992119300,2.755119384765625,5.50229549407959,-2.1439690589904785,3.242274761199951
1764544904008874800,2.771874755859375,5.100301265716553,-2.6703901290893555,5.124229907989502
1764544904025644500,2.78864453125,3.5886356830596924,-2.4975085258483887,7.003791809082031
1764544904042431000,2.805430908203125,1.949552297592163,-1.7736797332763672,8.385048866271973
1764544904059160300,2.822160400390625,0.8105686902999878,-0.9044869542121887,9.671789169311523
1764544904075937300,2.838937255859375,0.5000999569892883,-0.5318048596382141,10.675578117370605
1764544904092717300,2.85571728515625,-0.5940182209014893,-0.4049852192401886,11.895319938659668
1764544904109472500,2.872472412109375,-0.7328019142150879,-0.9613165259361267,11.918051719665527
1764544904126212000,2.889212158203125,-0.02512463741004467,-1.3465609550476074,12.038290977478027
1764544904142997800,2.905997802734375,0.9308080077171326,-1.906481385231018,12.658031463623047
1764544904159746600,2.92274658203125,1.7102699279785156,-2.7768707275390625,13.539188385009766
1764544904176495000,2.9394951171875,3.0179476737976074,-3.699902057647705,14.169098854064941
1764544904193258500,2.956258544921875,4.887938499450684,-4.2831525802612305,16.1904354095459
1764544904210039000,2.9730390625,5.7720866203308105,-4.773082733154297,18.07358741760254
1764544904226779400,2.989779296875,-3.16331148147583,-4.393820762634277,26.236103057861328
1764544904243568000,3.006568115234375,-4.1042890548706055,-4.905884742736816,21.220746994018555
1764544904260309000,3.02330908203125,-3.4755749702453613,-7.596015453338623,16.139589309692383
1764544904277069600,3.040069580078125,1.536790370941162,-9.710074424743652,16.397415161132812
1764544904293814800,3.056814697265625,6.447460651397705,-9.265607833862305,15.104094505310059
1764544904310608400,3.0736083984375,8.647063255310059,-9.233304023742676,12.621541023254395
1764544904327348200,3.09034814453125,9.316454887390137,-7.501499176025391,13.242478370666504
1764544904344131300,3.10713134765625,5.892923831939697,-5.846862316131592,12.361321449279785
1764544904360881700,3.123881591796875,1.7922241687774658,-4.662415027618408,7.774280548095703
1764544904377628400,3.14062841796875,3.391227960586548,-5.096712112426758,3.3708889484405518
1764544904394430200,3.15743017578125,-4.633700847625732,-5.133800983428955,-4.5391845703125
1764544904411175000,3.1741748046875,-0.4707878530025482,-4.023531436920166,-4.743771076202393
1764544904427909000,3.1909091796875,0.37806597352027893,-2.3641088008880615,-1.5996019840240479
1764544904469816000,3.232816162109375,5.513063430786133,-0.19202402234077454,4.716253280639648
1764544904494967000,3.257967041015625,6.5389862060546875,0.5365904569625854,4.988437175750732
1764544904528480800,3.291480712890625,7.41535758972168,-0.3720839321613312,11.665608406066895
1764544904553621000,3.31662109375,5.959324836730957,-2.958127021789551,13.706088066101074
1764544904570386000,3.333385986328125,7.728219032287598,-2.575275421142578,15.784255027770996
1764544904587131400,3.35013134765625,8.606983184814453,-5.230710506439209,12.226725578308105
1764544904603900200,3.366900146484375,8.083553314208984,-7.34895658493042,9.198010444641113
1764544904629048800,3.392048828125,6.278168201446533,-9.885947227478027,2.768495798110962
1764544904654207500,3.41720751953125,5.123033046722412,-9.91705322265625,1.2191431522369385
1764544904696088800,3.4590888671875,5.287539958953857,-7.785646915435791,6.810571670532227
1764544904712848000,3.475847900390625,5.667998790740967,-7.707880020141602,7.785646915435791
1764544904729602300,3.492602294921875,7.642675399780273,-7.303493022918701,9.392427444458008
1764544904746386000,3.509385986328125,16.27897071838379,-7.191030025482178,10.039685249328613
1764544904763143000,3.526142822265625,4.987240791320801,-4.0426740646362305,9.970891952514648
1764544904779924700,3.5429248046875,4.038486480712891,-1.607378602027893,7.847859859466553
1764544904796656000,3.55965625,5.545366287231445,-0.7848458290100098,4.054637908935547
1764544904813436400,3.5764365234375,4.0905303955078125,-0.4498506486415863,0.2727817893028259
1764544904830195700,3.59319580078125,1.8765711784362793,0.5629115104675293,-1.5278172492980957
1764544904846971600,3.6099716796875,3.090928554534912,0.1579262912273407,-2.2366909980773926
1764544904863726300,3.626726318359375,3.628117322921753,0.5300102233886719,-0.6628118753433228
1764544904880488000,3.643488037109375,2.503490686416626,0.13878370821475983,0.44805604219436646
1764544904897232400,3.660232421875,1.781456470489502,-0.7405785918235779,3.5264222621917725
1764544904913984000,3.67698388671875,0.7830511927604675,-2.77866530418396,2.6398816108703613
1764544904930741200,3.6937412109375,1.94297194480896,-5.912664890289307,-3.2751760482788086
1764544904947536400,3.710536376953125,9.32183837890625,-5.7750773429870605,10.29332447052002
1764544904964286700,3.72728662109375,9.605986595153809,-5.023731231689453,19.569101333618164
1764544904981060000,3.74406005859375,5.778068542480469,-8.383254051208496,16.839488983154297
1764544904997815600,3.760815673828125,1.83828604221344,-8.773882865905762,9.141180992126465
1764544905014577200,3.7775771484375,0.7262216806411743,-9.57607650756836,6.10468864440918
1764544905031337500,3.79433740234375,2.170290231704712,-8.964112281799316,6.997211456298828
1764544905048098800,3.811098876953125,2.63449764251709,-8.200801849365234,7.888537883758545
1764544905064860200,3.827860107421875,-4.264608383178711,-6.2536420822143555,8.245068550109863
1764544905081621000,3.84462109375,4.429114818572998,-4.840680122375488,-1.6707884073257446
1764544905098382000,3.861382080078125,8.014161109924316,-10.080962181091309,3.7016966342926025
1764544905115116500,3.878116455078125,3.2303106784820557,-8.897710800170898,5.831906795501709
1764544905131904000,3.894904052734375,1.2915260791778564,-11.364710807800293,6.778268337249756
1764544905148627700,3.911627685546875,1.1575279235839844,-12.553943634033203,8.246265411376953
1764544905165426200,3.92842626953125,1.6498512029647827,-12.394821166992188,8.182855606079102
1764544905182181000,3.94518115234375,3.067000389099121,-13.88375473022461,6.043671607971191
1764544905198955300,3.961955322265625,-2.68534517288208,-12.101101875305176,2.297109842300415
1764544905215715800,3.9787158203125,5.178068161010742,-16.68335723876953,5.937789440155029
1764544905232466000,3.9954658203125,1.323829174041748,-10.159326553344727,5.100301265716553
1764544905249232600,4.012232666015625,1.5379867553710938,-9.56889820098877,2.9694929122924805
1764544905265985800,4.02898583984375,0.9589236974716187,-8.631509780883789,2.970689296722412
1764544905282762500,4.045762451171875,1.2628121376037598,-8.95513916015625,2.6434707641601562
1764544905299516000,4.062515869140625,2.770888566970825,-8.100900650024414,1.2843475341796875
1764544905316277000,4.079277099609375,1.0348957777023315,-8.469993591308594,1.4075778722763062
1764544905333037800,4.096037841796875,0.45104706287384033,-7.735995769500732,2.589034080505371
1764544905349793000,4.11279296875,0.09272187948226929,-7.869993686676025,2.4227328300476074
1764544905366558200,4.12955810546875,-0.06640082597732544,-7.732406139373779,2.547757863998413
1764544905383321000,4.146321044921875,0.09152546525001526,-7.370491981506348,2.11405873298645
1764544905400057000,4.16305712890625,-0.18544375896453857,-9.07418155670166,1.7383856773376465
1764544905416844500,4.179844482421875,0.04247260093688965,-10.649256706237793,2.6871397495269775
1764544905433594000,4.196593994140625,0.09152546525001526,-10.51944637298584,3.601198196411133
1764544905450376700,4.213376708984375,0.47198426723480225,-12.138789176940918,3.989433526992798
1764544905467134000,4.230134033203125,1.3525429964065552,-11.96889877319336,4.097110748291016
1764544905483882000,4.246882080078125,1.5553346872329712,-10.73539924621582,3.623929977416992
1764544905500649200,4.263649169921875,1.5314065217971802,-9.128618240356445,3.999603033065796
1764544905517410800,4.280410888671875,1.2628121376037598,-8.338388442993164,2.8803603649139404
1764544905534199600,4.297199462890625,0.8991031050682068,-8.054241180419922,2.2851455211639404
1764544905550933800,4.313933837890625,0.25782662630081177,-8.273183822631836,1.812563180923462
1764544905567693800,4.33069384765625,0.43968117237091064,-7.671389579772949,2.14516544342041
1764544905584454700,4.34745458984375,0.6765705943107605,-7.871788501739502,2.1242282390594482
1764544905601216500,4.364216552734375,0.7088736891746521,-8.198408126831055,2.3234307765960693
1764544905617940000,4.38093994140625,0.7663014531135559,-8.644669532775879,2.6799614429473877
1764544905634738700,4.39773876953125,0.4007977843284607,-9.747760772705078,3.6131622791290283
1764544905651482000,4.414482177734375,0.029312077909708023,-9.92243766784668,3.94815731048584
1764544905668260600,4.431260498046875,0.13698910176753998,-9.638887405395508,3.882354736328125
1764544905685016300,4.448016357421875,-0.11306086927652359,-8.685347557067871,3.490530014038086
1764544905701787600,4.46478759765625,-0.4486542344093323,-8.153543472290039,3.422334671020508
1764544905718522000,4.481522216796875,-0.3756731450557709,-8.277970314025879,3.4169507026672363
1764544905735311000,4.49831103515625,-0.07956135272979736,-8.247461318969727,3.1722846031188965
1764544905752066800,4.51506689453125,-1.1892328262329102,-8.00100040435791,2.9282166957855225
1764544905768830500,4.53183056640625,-0.008374879136681557,-8.560921669006348,3.5336008071899414
1764544905785588700,4.548588623046875,0.7106683254241943,-9.117850303649902,3.476173162460327
1764544905802350300,4.565350341796875,0.4815555512905121,-8.73499870300293,3.3547372817993164
1764544905819078100,4.582078125,0.04905286431312561,-9.034700393676758,3.6508491039276123
1764544905835872300,4.598872314453125,-0.7076773047447205,-9.493523597717285,3.9571304321289062
1764544905852633900,4.6156337890625,-1.5451651811599731,-9.648459434509277,3.9116668701171875
1764544905869367000,4.632366943359375,-1.9100706577301025,-9.681360244750977,3.50129771232605
1764544905886155500,4.649155517578125,-1.6929219961166382,-9.814760208129883,3.4953157901763916
1764544905902891000,4.66589111328125,-0.8883354067802429,-9.831509590148926,3.387040376663208
1764544905919666000,4.682666015625,-0.08733802288770676,-9.872187614440918,3.3655049800872803
1764544905936444000,4.69944384765625,0.24227328598499298,-9.760921478271484,3.3984062671661377
1764544905953200600,4.71620068359375,0.5742774605751038,-9.865608215332031,3.511467218399048
1764544905969953800,4.732953857421875,1.1563315391540527,-10.635498046875,3.510869026184082
1764544905986727000,4.749726806640625,1.6516457796096802,-11.2576322555542,3.7118661403656006
1764544906003484200,4.766484130859375,1.7509479522705078,-11.22652530670166,3.3242287635803223
1764544906020242000,4.783241943359375,1.8394824266433716,-10.962119102478027,3.191427230834961
1764544906037011500,4.800011474609375,0.9708877801895142,-10.370492935180664,3.0442686080932617
1764544906053772800,4.816772705078125,0.47796630859375,-9.498908042907715,2.772084951400757
1764544906070528300,4.8335283203125,0.0011964113218709826,-8.730213165283203,3.01196551322937
1764544906087289300,4.850289306640625,0.05383851006627083,-8.175078392028809,3.04307222366333
1764544906104050400,4.867050537109375,0.33080771565437317,-7.584649562835693,2.915654420852661
1764544906120811500,4.8838115234375,0.5910272002220154,-7.327421188354492,2.5334010124206543
1764544906137572900,4.90057275390625,1.0474581718444824,-7.559525012969971,2.210369825363159
1764544906154301000,4.917301025390625,1.4620146751403809,-7.727022647857666,2.4568307399749756
1764544906171095000,4.934094970703125,1.6193426847457886,-8.063812255859375,2.7846474647521973
1764544906187850000,4.95085009765625,1.7371892929077148,-8.36590576171875,2.974278450012207
1764544906204622800,4.967622802734375,1.7718851566314697,-8.913264274597168,3.239283561706543
1764544906221379800,4.9843798828125,1.8897316455841064,-9.571290969848633,3.7525441646575928
1764544906238137900,5.001137939453125,2.228914260864258,-9.803394317626953,4.334000110626221
1764544906254901200,5.0179013671875,2.4705893993377686,-9.994820594787598,4.470989227294922
1764544906271623700,5.034623779296875,2.541775941848755,-9.91286563873291,4.3896331787109375
1764544906288427800,5.051427734375,2.1918256282806396,-9.491728782653809,4.216153621673584
1764544906305184300,5.068184326171875,2.0027925968170166,-9.294919967651367,4.006781578063965
1764544906321953300,5.084953369140625,1.7258232831954956,-8.963513374328613,3.7082769870758057
1764544906338700300,5.1017001953125,1.4321043491363525,-8.919844627380371,3.43190598487854
1764544906355468500,5.118468505859375,1.043868899345398,-8.995817184448242,3.11246395111084
1764544906372182800,5.135182861328125,0.9056833982467651,-9.038887977600098,3.0789644718170166
1764544906388990000,5.151989990234375,0.9230313301086426,-8.84805965423584,3.061018466949463
1764544906405731800,5.16873193359375,0.8793623447418213,-8.762516975402832,3.218944549560547
1764544906422472400,5.185472412109375,1.1976077556610107,-8.83071231842041,3.782454490661621
1764544906439272400,5.2022724609375,1.6755740642547607,-8.662615776062012,3.9535412788391113
1764544906456034800,5.219034912109375,1.8711873292922974,-8.453842163085938,4.369892120361328
1764544906472761000,5.235760986328125,1.8077775239944458,-8.391031265258789,4.222135543823242
1764544906489546000,5.2525458984375,1.6977076530456543,-8.523832321166992,3.8249270915985107
1764544906506329000,5.2693291015625,0.9912267923355103,-8.159524917602539,4.393222332000732
1764544906523051000,5.286051025390625,0.5150550603866577,-7.926225185394287,4.396213531494141
1764544906539817200,5.302817138671875,0.7800601720809937,-8.169096946716309,4.188037872314453
1764544906556601600,5.3196015625,0.8458628058433533,-8.005785942077637,4.183850288391113
1764544906573362200,5.336362060546875,1.0145567655563354,-8.050053596496582,4.417748928070068
1764544906590123500,5.35312353515625,0.8195417523384094,-8.776275634765625,4.195216178894043
1764544906606884600,5.369884521484375,0.6915257573127747,-8.366504669189453,4.493721008300781
1764544906623646000,5.38664599609375,0.8925228714942932,-8.806783676147461,4.443471431732178
1764544906640406300,5.40340625,0.8410771489143372,-8.968897819519043,4.3998026847839355
1764544906657123000,5.420123046875,0.7800601720809937,-9.122037887573242,4.265206336975098
1764544906673910000,5.436909912109375,0.7208378314971924,-9.029914855957031,4.122235298156738
1764544906690682600,5.4536826171875,0.8213363885879517,-8.921041488647461,4.361517429351807
1764544906707458000,5.4704580078125,0.8201399445533752,-8.806783676147461,4.41475772857666
1764544906724212700,5.487212646484375,0.7968099117279053,-8.742177963256836,4.874179840087891
1764544906740973300,5.503973388671875,0.9840483069419861,-8.572287559509277,5.548955917358398
1764544906757750800,5.520750732421875,1.8747764825820923,-8.563314437866211,5.321039199829102
1764544906774460700,5.537460693359375,1.2203395366668701,-8.84207820892334,5.130809783935547
1764544906791260200,5.55426025390625,2.03629207611084,-8.927022933959961,5.276174068450928
1764544906808018200,5.57101806640625,2.190629243850708,-9.159127235412598,4.810171604156494
1764544906824780000,5.587780029296875,2.0721843242645264,-9.472586631774902,4.254438877105713
1764544906841539800,5.604539794921875,1.9615163803100586,-8.927022933959961,4.171288013458252
1764544906858302200,5.62130224609375,1.8532410860061646,-9.184849739074707,3.955335855484009
1764544906875037400,5.638037353515625,1.7198412418365479,-9.77408218383789,3.933800458908081
1764544906891823900,5.654823974609375,1.6582261323928833,-10.494919776916504,3.376272678375244
1764544906908567000,5.671567138671875,1.929213285446167,-10.334601402282715,3.2374889850616455
1764544906925330000,5.688329833984375,1.9124635457992554,-11.124232292175293,2.994617462158203
1764544906942081500,5.70508154296875,1.7419748306274414,-11.405987739562988,2.898306369781494
1764544906958868500,5.721868408203125,1.6809579133987427,-10.520044326782227,2.7972097396850586
1764544906975634200,5.73863427734375,1.6444673538208008,-9.716055870056152,2.8007988929748535
1764544906992390400,5.755390380859375,1.293320655822754,-9.042476654052734,2.9006991386413574
1764544907009152800,5.77215283203125,0.989432156085968,-8.898308753967285,2.806781053543091
1764544907025863700,5.78886376953125,1.2370892763137817,-8.246265411376953,2.7086751461029053
1764544907042680000,5.80568017578125,1.581655740737915,-8.257631301879883,2.2773690223693848
1764544907059435800,5.822435791015625,1.6139588356018066,-8.143373489379883,2.3204398155212402
1764544907076196900,5.83919677734375,1.8496519327163696,-8.350353240966797,1.893320918083191
1764544907092957700,5.855957763671875,1.4889339208602905,-8.312067985534668,1.5744773149490356
1764544907109713700,5.872713623046875,1.5044872760772705,-8.957531929016113,1.4518451690673828
1764544907126485500,5.889485595703125,1.2293126583099365,-9.66819953918457,1.6929219961166382
1764544907143240700,5.90624072265625,0.7680960893630981,-10.095916748046875,1.6450655460357666
1764544907159980500,5.92298046875,0.3595215976238251,-10.565508842468262,1.3902299404144287
1764544907176763400,5.939763427734375,0.40797626972198486,-10.490134239196777,1.7491533756256104
1764544907193499400,5.95649951171875,0.6059823632240295,-10.596016883850098,2.0063817501068115
1764544907210285600,5.97328564453125,0.5497509837150574,-10.668997764587402,2.1260228157043457
1764544907227047200,5.990047119140625,0.5473581552505493,-10.259825706481934,2.7828526496887207
1764544907243807500,6.006807373046875,0.6101697683334351,-10.209575653076172,3.3092737197875977
1764544907260563700,6.023563720703125,0.600000262260437,-10.061819076538086,3.4199416637420654
1764544907277303600,6.040303466796875,0.729810893535614,-9.672985076904297,3.2823543548583984
1764544907294060300,6.057060302734375,0.7914260625839233,-9.163313865661621,3.0215368270874023
1764544907310858800,6.073858642578125,0.625723123550415,-8.918647766113281,2.7314071655273438
1764544907327610600,6.090610595703125,0.37926238775253296,-8.812167167663574,2.431705951690674
1764544907344374500,6.10737451171875,0.047258246690034866,-8.740981101989746,2.1744775772094727
1764544907361137200,6.12413720703125,-0.29850462079048157,-8.626724243164062,2.1475582122802734
1764544907377900000,6.140900146484375,-0.6837490797042847,-8.436494827270508,2.20737886428833
1764544907394658800,6.157658935546875,-0.98703932762146,-8.25523853302002,2.3186452388763428
1764544907411394000,6.17439404296875,-1.0414760112762451,-8.069195747375488,2.4681966304779053
1764544907428136400,6.191136474609375,-0.8889335989952087,-7.917252063751221,2.654836654663086
1764544907444912400,6.207912353515625,-0.7459624409675598,-7.727022647857666,2.98085880279541
1764544907461703400,6.224703369140625,-0.7268198728561401,-7.65583610534668,3.334996461868286
1764544907478425300,6.24142529296875,-0.7956135272979736,-7.954938888549805,3.538984775543213
1764544907495225300,6.258225341796875,-1.0043872594833374,-7.981858253479004,4.180859565734863
1764544907511981600,6.274981689453125,-0.7674978375434875,-8.798408508300781,3.855435371398926
1764544907528720100,6.29172021484375,-0.7716853022575378,-8.762516975402832,4.286143779754639
1764544907545508000,6.308508056640625,-0.5694918036460876,-8.86660385131836,4.146163463592529
1764544907562270200,6.325270263671875,-0.46360939741134644,-8.890532493591309,4.203591346740723
1764544907578984200,6.341984130859375,-0.5401797294616699,-8.877371788024902,4.29451847076416
1764544907595792100,6.358792236328125,-0.9379864931106567,-8.962915420532227,3.9320058822631836
1764544907612553700,6.3755537109375,-1.40279221534729,-9.07717227935791,3.531208038330078
1764544907629273000,6.392273193359375,-1.5738791227340698,-9.367302894592285,3.0759735107421875
1764544907646075000,6.409074951171875,-1.0426725149154663,-9.833903312683105,2.967100143432617
1764544907662822000,6.42582177734375,-0.364905446767807,-10.612168312072754,2.7601208686828613
1764544907679562200,6.442562255859375,-0.053240302950143814,-11.029715538024902,3.1304101943969727
1764544907696341200,6.45934130859375,0.5377869009971619,-11.768500328063965,2.785245656967163
1764544907713120300,6.476120361328125,1.2957134246826172,-11.909078598022461,2.7008986473083496
1764544907729845000,6.492844970703125,2.0512471199035645,-11.72542953491211,2.7284159660339355
1764544907746648300,6.5096484375,2.383849620819092,-10.849058151245117,2.92283296585083
1764544907763397400,6.5263974609375,2.002194404602051,-10.497312545776367,3.0927233695983887
1764544907780161500,6.54316162109375,0.9780662655830383,-9.6795654296875,2.874976396560669
1764544907796925700,6.55992578125,0.22432711720466614,-9.54796028137207,2.8636105060577393
1764544907813687000,6.57668701171875,-0.21236300468444824,-8.894122123718262,3.1166515350341797
1764544907830443500,6.593443603515625,-0.17108681797981262,-8.157132148742676,3.211168050765991
1764544907847209500,6.61020947265625,0.19680966436862946,-7.585247993469238,2.9593234062194824
1764544907863970600,6.626970458984375,0.722034215927124,-7.5050883293151855,2.6422743797302246
1764544907880693000,6.64369287109375,1.1012966632843018,-7.6474609375,2.4394826889038086
1764544907897511400,6.660511474609375,1.3202399015426636,-7.9250288009643555,2.5328028202056885
1764544907914229200,6.677229248046875,1.4536397457122803,-8.34138011932373,2.688336133956909
1764544907931006000,6.694005859375,1.6313068866729736,-8.816354751586914,2.8911280632019043
1764544907947739000,6.71073876953125,1.8502501249313354,-9.127422332763672,3.1094729900360107
1764544907964511700,6.72751171875,2.2187447547912598,-9.44447135925293,3.4606196880340576
1764544907981284600,6.74428466796875,2.586043119430542,-9.66640567779541,3.8985064029693604
1764544907998048500,6.761048583984375,2.7553353309631348,-9.753743171691895,4.289134502410889
1764544908014814700,6.777814697265625,2.6452653408050537,-9.735796928405762,4.471587181091309
1764544908031572200,6.794572265625,2.3461625576019287,-9.516255378723145,4.511667251586914
1764544908048342300,6.81134228515625,2.0853450298309326,-9.305686950683594,4.369892120361328
1764544908065104100,6.828104248046875,1.9280169010162354,-8.950352668762207,4.1042890548706055
1764544908081862400,6.8448623046875,1.8658034801483154,-8.538188934326172,3.8865420818328857
1764544908098632700,6.8616328125,1.5954145193099976,-8.34138011932373,3.7495529651641846
1764544908115387600,6.8783876953125,1.3208380937576294,-8.268997192382812,3.521636724472046
1764544908132105000,6.89510498046875,1.1820544004440308,-8.307282447814941,3.311068296432495
1764544908148909600,6.91190966796875,1.2352946996688843,-8.440681457519531,3.205185890197754
1764544908165671200,6.928671142578125,1.4243277311325073,-8.626724243164062,3.290131092071533
1764544908182393300,6.945393310546875,1.6426727771759033,-8.862417221069336,3.517449378967285
1764544908199163400,6.962163330078125,1.8179470300674438,-9.059226989746094,3.7836508750915527
1764544908215955000,6.978954833984375,1.8765711784362793,-9.084351539611816,4.032504558563232
1764544908232682200,6.99568212890625,1.836491346359253,-8.883952140808105,4.095315933227539
1764544908249476000,7.01247607421875,1.6426727771759033,-8.673981666564941,4.125824451446533
1764544908266231800,7.029231689453125,1.4344971179962158,-8.458627700805664,4.089334011077881
1764544908282977000,7.04597705078125,1.25144624710083,-8.343772888183594,4.128815650939941
1764544908299759600,7.062759521484375,1.174277663230896,-8.321041107177734,4.1623148918151855
1764544908316521200,7.079521240234375,1.1318050622940063,-8.350353240966797,4.2484564781188965
1764544908333283300,7.096283447265625,1.1324033737182617,-8.36411190032959,4.325026988983154
1764544908350043400,7.11304345703125,1.0600204467773438,-8.369495391845703,4.296313285827637
1764544908366804700,7.1298046875,0.9116654396057129,-8.407182693481445,4.1868414878845215
1764544908383565600,7.146565673828125,0.8739784955978394,-8.507680892944336,4.038486480712891
1764544908400326400,7.163326416015625,0.8123632669448853,-8.593822479248047,3.9661035537719727
1764544908417088500,7.180088623046875,0.8267202377319336,-8.62193775177002,3.9421753883361816
1764544908433843700,7.19684375,0.9092726111412048,-8.675776481628418,4.070789337158203
1764544908450566100,7.213566162109375,1.0163514614105225,-8.787042617797852,4.3519463539123535
1764544908467371800,7.230371826171875,1.103689432144165,-8.825926780700684,4.595416069030762
1764544908484131300,7.24713134765625,1.0947163105010986,-8.82114028930664,4.734199523925781
1764544908500893700,7.263893798828125,1.0319048166275024,-8.816953659057617,4.738985061645508
1764544908517655300,7.2806552734375,1.0456634759902954,-8.7445707321167,4.725226402282715
1764544908534400500,7.297400390625,1.1066805124282837,-8.606385231018066,4.807180881500244
1764544908551177000,7.314177001953125,1.1258230209350586,-8.535796165466309,4.969892501831055
1764544908567939000,7.33093896484375,1.0396814346313477,-8.469993591308594,5.219344615936279
1764544908584699400,7.347699462890625,1.1216355562210083,-8.528019905090332,5.356931686401367
1764544908601460500,7.36446044921875,1.2335001230239868,-8.666205406188965,5.30847692489624
1764544908618222300,7.381222412109375,1.5260226726531982,-8.73200798034668,5.173282623291016
1764544908634951000,7.397950927734375,1.781456470489502,-8.893523216247559,5.066203594207764
1764544908651743500,7.414743408203125,2.0452651977539062,-8.991629600524902,4.835894584655762
1764544908668505000,7.431505126953125,2.121237277984619,-9.047860145568848,4.5098724365234375
1764544908685238500,7.448238525390625,2.2187447547912598,-9.280562400817871,4.202394962310791
1764544908701981000,7.46498095703125,2.111067771911621,-9.591031074523926,3.9050865173339844
1764544908718788600,7.48178857421875,1.9423737525939941,-10.03549861907959,3.7501513957977295
1764544908735524400,7.4985244140625,1.7772690057754517,-10.333404541015625,3.720839262008667
1764544908752310500,7.515310546875,1.734796404838562,-10.395618438720703,3.720839262008667
1764544908769073000,7.532072998046875,1.8011972904205322,-10.338190078735352,3.806980848312378
1764544908785793800,7.548793701171875,1.8771693706512451,-10.232307434082031,3.845266103744507
1764544908802578200,7.565578125,2.1158533096313477,-9.741181373596191,3.483351469039917
1764544908819356200,7.582356201171875,2.159522533416748,-9.850054740905762,3.205185890197754
1764544908836117800,7.59911767578125,2.070389747619629,-9.66640567779541,2.709273338317871
1764544908852877600,7.615877685546875,1.9609181880950928,-9.41037368774414,2.0745773315429688
1764544908869633000,7.632633056640625,1.8753747940063477,-9.120243072509766,1.4925230741500854
1764544908886407000,7.649406982421875,1.7413766384124756,-8.769096374511719,1.0977073907852173
1764544908903161000,7.6661611328125,1.2975081205368042,-8.510671615600586,0.885344386100769
1764544908919922400,7.68292236328125,0.605384111404419,-8.288139343261719,0.9601200819015503
1764544908936651500,7.699651611328125,0.12681959569454193,-8.280363082885742,1.2059825658798218
1764544908953399800,7.71639990234375,-0.0933200865983963,-8.691329956054688,1.7545372247695923
1764544908970206700,7.733206787109375,0.08374879509210587,-9.474979400634766,2.5393829345703125
1764544908986947300,7.749947265625,0.4091726839542389,-10.187442779541016,3.448655605316162
1764544909003728000,7.766727783203125,0.7501499056816101,-10.64686393737793,3.7704901695251465
1764544909020489500,7.783489501953125,1.109073281288147,-10.617551803588867,3.7501513957977295
1764544909037255700,7.800255615234375,1.4656038284301758,-10.310672760009766,3.8081772327423096
1764544909053986300,7.816986328125,1.6013965606689453,-10.016953468322754,3.64127779006958
1764544909070773200,7.833773193359375,1.5583257675170898,-9.599406242370605,3.4091739654541016
1764544909087534300,7.850534423828125,1.3226326704025269,-9.142974853515625,2.881556749343872
1764544909104295000,7.867294921875,0.8386843204498291,-8.828319549560547,2.0859432220458984
1764544909121056300,7.88405615234375,0.355932354927063,-8.574081420898438,1.5290136337280273
1764544909137801700,7.9008017578125,0.038285162299871445,-8.478368759155273,1.415354609489441
1764544909154579200,7.9175791015625,-0.04366901144385338,-8.383852005004883,1.602592945098877
1764544909171340000,7.934340087890625,0.13878370821475983,-8.374878883361816,1.8891334533691406
1764544909188104700,7.951104736328125,0.3326023519039154,-8.46161937713623,2.227717876434326
1764544909204830000,7.967829833984375,0.4534398913383484,-8.468199729919434,2.648256540298462
1764544909221623300,7.984623291015625,0.5162515044212341,-8.437690734863281,3.1214370727539062
1764544909238341400,8.00134130859375,0.6131607890129089,-8.504690170288086,3.2931220531463623
1764544909255145700,8.018145751953124,0.7094719409942627,-8.401200294494629,3.685544967651367
1764544909271900700,8.034900634765625,0.6867401003837585,-8.535796165466309,3.8524444103240967
1764544909288639000,8.051638916015625,0.5353940725326538,-8.764909744262695,3.6699917316436768
1764544909305423000,8.068423095703125,0.3158525824546814,-8.937192916870117,3.4163525104522705
1764544909322196700,8.08519677734375,0.16809579730033875,-9.056235313415527,3.1818559169769287
1764544909338951200,8.101951171875,0.11126625537872314,-9.203991889953613,2.994617462158203
1764544909355712000,8.1187119140625,-0.04666004329919815,-9.186046600341797,3.1100711822509766
1764544909372474400,8.135474365234375,-0.15493527054786682,-9.317052841186523,3.373281717300415
1764544909389239300,8.1522392578125,-0.18723836541175842,-9.390034675598145,3.5928232669830322
1764544909405996000,8.16899609375,-0.062213387340307236,-9.4660062789917,3.606581926345825
1764544909422756900,8.1857568359375,0.267397940158844,-9.260822296142578,3.840480327606201
1764544909439488500,8.202488525390624,0.4450650215148926,-9.317651748657227,3.8494534492492676
1764544909456259800,8.219259765625,0.511465847492218,-9.32004451751709,3.576671600341797
1764544909473041400,8.23604150390625,0.259621262550354,-9.179466247558594,3.0903303623199463
1764544909489777000,8.25277685546875,-0.24945175647735596,-9.156135559082031,2.723630428314209
1764544909506569000,8.26956884765625,-0.7417750358581543,-9.346963882446289,2.466402053833008
1764544909523324400,8.286324462890626,-1.088136076927185,-9.651450157165527,2.6572296619415283
1764544909540057300,8.303057373046874,-0.8799605369567871,-9.856635093688965,2.7702903747558594
1764544909556844500,8.319844482421875,-0.4061816334724426,-9.741181373596191,2.84087872505188
1764544909573610200,8.3366103515625,0.052043892443180084,-9.604789733886719,2.6727828979492188
1764544909590359800,8.35335986328125,0.4265206456184387,-9.708877563476562,2.5226333141326904
1764544909607130000,8.370130126953125,0.5940182209014893,-10.177870750427246,2.596810817718506
1764544909623891700,8.3868916015625,0.6681957244873047,-10.887343406677246,2.8181469440460205
1764544909640648200,8.403648193359375,0.8219345808029175,-11.38086223602295,2.915654420852661
1764544909657413400,8.420413330078125,0.8793623447418213,-11.418549537658691,2.819343328475952
1764544909674198300,8.4371982421875,0.7728816866874695,-11.317452430725098,2.6626133918762207
1764544909690937000,8.45393701171875,0.534795880317688,-11.029715538024902,2.521436929702759
1764544909707662000,8.470662109375,0.30568310618400574,-10.581061363220215,2.5908286571502686
1764544909724458200,8.487458251953125,0.4247260093688965,-9.958329200744629,2.751147747039795
1764544909741213200,8.504213134765624,0.6520441770553589,-9.139984130859375,2.9312076568603516
1764544909757977300,8.520977294921876,0.7932206988334656,-8.368298530578613,2.9724838733673096
1764544909774742300,8.5377421875,0.9326026439666748,-7.88494873046875,2.9168508052825928
1764544909791502800,8.5545029296875,0.9667003750801086,-7.989036560058594,2.7828526496887207
1764544909808257000,8.571257080078125,0.9559326171875,-8.391031265258789,2.809173822402954
1764544909825032000,8.588031982421874,1.0558329820632935,-8.816953659057617,2.764308452606201
1764544909841786400,8.604786376953125,1.1623135805130005,-8.95513916015625,2.562114953994751
1764544909858547700,8.621547607421874,1.1611171960830688,-8.891729354858398,2.2947168350219727
1764544909875309000,8.63830908203125,1.2897313833236694,-8.837292671203613,2.1511476039886475
1764544909892037000,8.655037109375,1.7024933099746704,-8.913264274597168,2.134995937347412
1764544909908835300,8.67183544921875,2.0823538303375244,-9.017950057983398,2.3054845333099365
1764544909925592000,8.688592041015625,2.3473589420318604,-9.076574325561523,2.6488547325134277
1764544909942326000,8.705325927734375,2.472383975982666,-9.053842544555664,3.0167510509490967
1764544909959081000,8.7220810546875,2.583052158355713,-9.011369705200195,3.322434186935425
1764544909975876000,8.7388759765625,2.6596224308013916,-8.959924697875977,3.5473594665527344
1764544909992598500,8.7555986328125,2.674577474594116,-8.970093727111816,3.6047873497009277
1764544910009397500,8.7723974609375,2.56510591506958,-9.070592880249023,3.518645763397217
1764544910026159400,8.789159423828124,2.321636199951172,-9.218947410583496,3.346362352371216
1764544910042882000,8.805882080078124,1.9914265871047974,-9.33320426940918,3.0837502479553223
1764544910059676700,8.8226767578125,1.5553346872329712,-9.4390869140625,2.84087872505188
1764544910076446700,8.83944677734375,1.067797064781189,-9.597611427307129,2.688934564590454
1764544910101566500,8.86456640625,0.592223584651947,-9.43190860748291,2.7768707275390625
1764544910118304000,8.881303955078126,0.5754738450050354,-9.097511291503906,3.032304525375366
1764544910135117300,8.898117431640625,0.9020941257476807,-8.605188369750977,3.3822548389434814
1764544910151867400,8.914867431640625,1.2658032178878784,-8.443074226379395,3.6879379749298096
1764544910168593700,8.93159375,1.5912270545959473,-8.342576026916504,3.9218363761901855
1764544910185389300,8.948389404296876,1.7694923877716064,-8.414958953857422,4.102494239807129
1764544910202151700,8.965151611328125,1.6947166919708252,-8.549555778503418,4.246063709259033
1764544910218883300,8.98188330078125,1.48055899143219,-8.694320678710938,4.3178486824035645
1764544910235673300,8.99867333984375,1.2759727239608765,-8.881559371948242,4.240679740905762
1764544910252434700,9.0154345703125,1.0414760112762451,-8.9910306930542,4.102494239807129
1764544910269200600,9.03220068359375,0.9026923179626465,-9.034101486206055,3.9493536949157715
1764544910285956900,9.048956787109375,0.8015955686569214,-9.038289070129395,3.772883176803589
1764544910302718500,9.065718505859374,0.7914260625839233,-8.97966480255127,3.6634113788604736
1764544910319436000,9.08243603515625,0.828514814376831,-8.846264839172363,3.6640095710754395
1764544910336240400,9.099240478515625,0.8135597109794617,-8.775078773498535,3.7405800819396973
1764544910353002000,9.116001953125,0.7657032608985901,-8.73200798034668,3.8081772327423096
1764544910369718300,9.13271826171875,0.6981059908866882,-8.732605934143066,3.8368911743164062
1764544910386515700,9.149515625,0.6604190468788147,-8.766105651855469,3.7986059188842773
1764544910403285200,9.16628515625,0.6903293132781982,-8.918647766113281,3.7836508750915527
1764544910420013000,9.183012939453125,0.7770691514015198,-8.975478172302246,3.720839262008667
1764544910436807700,9.1998076171875,0.8919246196746826,-8.984451293945312,3.686741590499878
1764544910453563000,9.21656298828125,0.9206385016441345,-8.94137954711914,3.7154552936553955
1764544910470308400,9.233308349609375,0.8620143532752991,-8.837292671203613,3.830909013748169
1764544910487090700,9.250090576171875,0.7758727669715881,-8.780462265014648,3.888935089111328
1764544910503852500,9.2668525390625,0.7328019142150879,-8.785248756408691,3.93679141998291
1764544910520617000,9.283616943359375,0.6951149702072144,-8.84805965423584,3.9559340476989746
1764544910537374200,9.300374267578125,0.8189435601234436,-8.766703605651855,4.12343168258667
1764544910554110700,9.31711083984375,0.8805587291717529,-8.629117012023926,4.377070903778076
1764544910570853600,9.333853515625,0.9152546525001526,-8.621339797973633,4.688137531280518
1764544910587657500,9.350657470703124,1.155733346939087,-8.630910873413086,4.969294548034668
1764544910604419600,9.367419677734375,1.2382856607437134,-8.741579055786133,5.026124000549316
1764544910621141200,9.384141357421875,1.3782658576965332,-8.861220359802246,5.010570526123047
1764544910637931000,9.400930908203126,1.5948163270950317,-8.989236831665039,4.875376224517822
1764544910654703000,9.417703125,1.604387640953064,-9.072985649108887,4.602594375610352
1764544910671431000,9.434430908203124,1.6761722564697266,-9.10110092163086,4.353142738342285
1764544910688224500,9.451224609375,1.7060825824737549,-9.339186668395996,4.060619831085205
1764544910704989400,9.467989501953125,1.6277176141738892,-9.70229721069336,3.90568470954895
1764544910721717000,9.484717041015625,1.4817553758621216,-10.012765884399414,3.7423746585845947
1764544910738508800,9.5015087890625,1.3872389793395996,-10.204790115356445,3.593421459197998
1764544910755270100,9.518270263671875,1.4644074440002441,-10.25623607635498,3.4498519897460938
1764544910772024800,9.53502490234375,1.597209095954895,-10.145567893981934,3.4067811965942383
1764544910788797700,9.551797607421875,1.6761722564697266,-9.838688850402832,3.455834150314331
1764544910805554000,9.568553955078125,1.6115660667419434,-9.604789733886719,3.514458179473877
1764544910822297600,9.585297607421875,1.4847464561462402,-9.34157943725586,3.5156545639038086
1764544910839075300,9.602075439453126,1.3824533224105835,-9.193224906921387,3.5503506660461426
1764544910855810800,9.618810791015624,1.334596872329712,-9.18843936920166,3.4737801551818848
1764544910872601300,9.635601318359376,1.3920245170593262,-9.231510162353516,3.3780672550201416
1764544910889350700,9.6523505859375,1.4775680303573608,-9.181859016418457,3.263211965560913
1764544910906121000,9.669120849609374,1.5385849475860596,-9.09093189239502,3.153141975402832
1764544910922836700,9.685836669921875,1.6007983684539795,-9.104690551757812,3.0526435375213623
1764544910939642600,9.702642578125,1.6103696823120117,-9.123832702636719,3.0000014305114746
1764544910956402700,9.719402587890626,1.6055840253829956,-9.142376899719238,2.9186453819274902
1764544910973127400,9.73612744140625,1.6277176141738892,-8.98385238647461,2.8187451362609863
1764544910989919200,9.752919189453126,1.5822539329528809,-8.766703605651855,2.575873613357544
1764544911006694400,9.7696943359375,1.4165509939193726,-8.545368194580078,2.2241287231445312
1764544911023445200,9.7864453125,1.1078768968582153,-8.425128936767578,1.8855443000793457
1764544911040209400,9.80320947265625,0.8267202377319336,-8.659625053405762,1.6606189012527466
1764544911056970800,9.819970703125,0.6807580590248108,-8.975478172302246,1.5212370157241821
1764544911073752300,9.83675244140625,0.6137589812278748,-9.45464038848877,1.6432709693908691
1764544911090492400,9.853492431640625,0.6047859191894531,-9.963115692138672,1.8945173025131226
1764544911107254500,9.870254638671875,0.5365904569625854,-10.252646446228027,2.328814744949341
1764544911123986200,9.886986083984375,0.45164528489112854,-10.246066093444824,2.788236618041992
1764544911140734500,9.903734375,0.4420739710330963,-10.189835548400879,3.1136605739593506
1764544911157512400,9.920512451171875,0.5234299302101135,-10.128219604492188,3.33858585357666
1764544911174273000,9.93727294921875,0.8859425783157349,-9.917651176452637,3.4672000408172607
1764544911191034400,9.954034423828125,1.1282159090042114,-9.709476470947266,3.252444267272949
1764544911207801000,9.970801025390625,1.0109676122665405,-9.527621269226074,3.090928554534912
1764544911224550700,9.987550537109374,0.7154539823532104,-9.306285858154297,2.8013970851898193
1764544911241344300,10.00434423828125,0.39182472229003906,-9.043074607849121,2.602792739868164
1764544911258105600,10.021105712890625,0.09152546525001526,-8.780462265014648,2.4568307399749756
1764544911274880000,10.0378798828125,-0.13040883839130402,-8.627920150756836,2.4675984382629395
1764544911291626800,10.054626708984374,-0.26440688967704773,-8.61894702911377,2.5782663822174072
1764544911308389000,10.07138916015625,-0.2919243574142456,-8.658429145812988,2.850450038909912
1764544911325149000,10.08814892578125,-0.23808585107326508,-8.71226692199707,3.046063184738159
1764544911341910800,10.104910888671874,-0.2183450609445572,-8.726624488830566,3.2135608196258545
1764544911358672100,10.121672119140625,-0.15613168478012085,-8.684749603271484,3.342773199081421
1764544911375433200,10.13843310546875,-0.04127619042992592,-8.674580574035645,3.3996028900146484
1764544911392152000,10.155152099609374,0.007178467698395252,-8.69910717010498,3.466003656387329
1764544911408956200,10.1719560546875,-0.01615155301988125,-8.780462265014648,3.4229328632354736
1764544911425716000,10.188716064453125,-0.08853443711996078,-8.72782039642334,3.3517463207244873
1764544911442477800,10.205477783203126,-0.18125630915164948,-8.608179092407227,3.328416347503662
1764544911459235300,10.2222353515625,-0.2679961323738098,-8.540582656860352,3.305086374282837
1764544911476004000,10.239004150390626,-0.30209386348724365,-8.45444107055664,3.3296127319335938
1764544911492760800,10.2557607421875,-0.29312077164649963,-8.379066467285156,3.4259238243103027
1764544911509520100,10.27252001953125,-0.3164508044719696,-8.4562349319458,3.4779677391052246
1764544911526285600,10.28928564453125,-0.3158525824546814,-8.479565620422363,3.5306098461151123
1764544911543044900,10.306044921875,-0.3774677813053131,-8.551948547363281,3.582653760910034
1764544911559806200,10.32280615234375,-0.47617170214653015,-8.715258598327637,3.692723512649536
1764544911576566800,10.33956689453125,-0.5162515044212341,-9.013762474060059,3.7914273738861084
1764544911593327600,10.35632763671875,-0.373878538608551,-9.387042999267578,3.8183467388153076
1764544911610090200,10.37309033203125,-0.13100704550743103,-9.70229721069336,3.7872400283813477
1764544911626850000,10.38985009765625,0.17228323221206665,-9.892526626586914,3.7471601963043213
1764544911643586800,10.4065869140625,0.2967100143432617,-9.910472869873047,3.57906436920166
1764544911660373000,10.423373046875,0.02751746028661728,-9.862616539001465,3.360121250152588
1764544911677134300,10.44013427734375,-0.5563312768936157,-10.021141052246094,3.184846878051758
1764544911693879600,10.456879638671875,-0.851844847202301,-10.1276216506958,3.242274761199951
1764544911710650600,10.473650634765624,-0.9050851464271545,-10.094121932983398,3.3338000774383545
1764544911727423500,10.490423583984375,-0.7339983582496643,-9.897313117980957,3.3433713912963867
1764544911744173300,10.50717333984375,-0.37148571014404297,-9.776474952697754,3.2231321334838867
1764544911760945700,10.523945556640625,-0.016749758273363113,-9.817750930786133,3.0927233695983887
1764544911777701000,10.540701171875,0.19621145725250244,-10.042078018188477,3.10528564453125
1764544911794462700,10.557462646484375,0.39182472229003906,-10.434501647949219,3.1316065788269043
1764544911811224600,10.574224609375,0.503689169883728,-10.640284538269043,3.116053342819214
1764544911827984000,10.59098388671875,0.5539384484291077,-10.381260871887207,3.01196551322937
1764544911844746000,10.60774609375,0.5162515044212341,-9.973882675170898,2.89890456199646
1764544911861507300,10.62450732421875,0.47976094484329224,-9.671191215515137,2.8767709732055664
1764544911878268400,10.641268310546875,0.3966103494167328,-9.437891006469727,3.0693931579589844
1764544911895018000,10.65801806640625,0.41874396800994873,-9.218947410583496,3.2231321334838867
1764544911911791400,10.674791259765625,0.5497509837150574,-8.902496337890625,3.2338998317718506
1764544911928551200,10.69155126953125,0.7154539823532104,-8.737990379333496,3.0478577613830566
1764544911945312800,10.708312744140626,0.8542376756668091,-8.764909744262695,2.8414769172668457
1764544911962068000,10.72506787109375,1.0600204467773438,-8.764310836791992,2.659024238586426
1764544911978841900,10.741841796875,1.3411771059036255,-8.690134048461914,2.4149563312530518
1764544911995596300,10.75859619140625,1.5601203441619873,-8.574081420898438,2.1756739616394043
1764544912012358700,10.775358642578125,1.794616937637329,-8.5764741897583,2.012363910675049
1764544912029118500,10.792118408203125,2.05603289604187,-8.82532787322998,1.9956140518188477
1764544912045880300,10.80888037109375,2.338385820388794,-9.270991325378418,2.2606191635131836
1764544912062641400,10.825641357421874,2.472383975982666,-9.650253295898438,2.665006160736084
1764544912079402200,10.84240234375,2.431705951690674,-9.792028427124023,3.118446111679077
1764544912096163600,10.85916357421875,2.3324038982391357,-9.841081619262695,3.415156126022339
1764544912112925400,10.875925537109374,2.221735715866089,-9.742975234985352,3.6406795978546143
1764544912129685800,10.892685791015625,2.1302103996276855,-9.638289451599121,3.8183467388153076
1764544912146414300,10.909414306640626,1.932802438735962,-9.491130828857422,3.8865420818328857
1764544912163208700,10.926208740234374,1.633101463317871,-9.275776863098145,3.850649833679199
1764544912179977500,10.9429775390625,1.3567304611206055,-8.974281311035156,3.661616802215576
1764544912196730600,10.959730712890625,1.074975609779358,-8.595019340515137,3.486940860748291
1764544912213492700,10.97649267578125,0.8889335989952087,-8.203194618225098,3.3511481285095215
1764544912230259700,10.993259765625,0.8715856671333313,-7.934599876403809,3.2709884643554688
1764544912247008000,11.010008056640626,0.9756734371185303,-7.767102241516113,3.40079927444458
1764544912263775500,11.026775390625,1.1497513055801392,-7.849654674530029,3.6436707973480225
1764544912280536800,11.043536865234374,1.2628121376037598,-8.066205024719238,3.9864425659179688
1764544912297297700,11.060297607421875,1.308275818824768,-8.191828727722168,4.339384078979492
1764544912314034400,11.077034423828126,1.3196417093276978,-8.370692253112793,4.611567497253418
1764544912330819600,11.093819580078126,1.2837493419647217,-8.529216766357422,4.806582450866699
1764544912347582000,11.11058203125,1.1748759746551514,-8.660223007202148,4.983651161193848
1764544912364343000,11.127343017578125,1.0426725149154663,-8.795417785644531,5.093122959136963
1764544912381103900,11.144103759765626,0.8997012972831726,-8.895915985107422,5.045266628265381
1764544912397854700,11.160854736328124,0.7752745151519775,-8.995817184448242,4.810770034790039
1764544912414627000,11.177626953125,0.6837490797042847,-9.042476654052734,4.514657974243164
1764544912431361300,11.194361328125,0.6197410821914673,-8.950352668762207,4.213760852813721
1764544912448148700,11.211148681640625,0.4785645306110382,-8.74337387084961,3.985844373703003
1764544912464909800,11.227909912109375,0.3038884699344635,-8.547162055969238,3.8057844638824463
1764544912481671000,11.2446708984375,0.23449662327766418,-8.383852005004883,3.696312665939331
1764544912498431700,11.261431640625,0.3008974492549896,-8.316255569458008,3.649054527282715
1764544912515194000,11.278194091796875,0.2967100143432617,-8.340781211853027,3.696312665939331
1764544912531954200,11.2949541015625,0.36729827523231506,-8.670990943908691,3.814159393310547
1764544912548716000,11.311716064453124,0.37926238775253296,-8.920442581176758,3.8321053981781006
1764544912565479000,11.32847900390625,0.511465847492218,-9.18843936920166,3.9451663494110107
1764544912582236000,11.34523583984375,0.7100701332092285,-9.381061553955078,4.2209391593933105
1764544912598999000,11.3619990234375,0.908674418926239,-9.511469841003418,4.5547380447387695
1764544912615761400,11.378761474609375,1.0761719942092896,-9.402596473693848,4.90408992767334
1764544912632521000,11.39552099609375,1.0947163105010986,-9.207581520080566,5.206183910369873
1764544912649245000,11.412244873046875,1.2077772617340088,-8.997013092041016,5.350351333618164
1764544912666044400,11.42904443359375,1.2388839721679688,-8.752944946289062,5.336592674255371
1764544912682784300,11.4457841796875,1.2323036193847656,-8.536395072937012,5.251647472381592
1764544912699566600,11.462566650390626,1.2640085220336914,-8.402397155761719,5.113461971282959
1764544912716328400,11.479328369140624,1.2813565731048584,-8.270791053771973,4.836492538452148
1764544912733088800,11.4960888671875,1.2999008893966675,-8.284550666809082,4.611567497253418
1764544912749839000,11.512839111328125,1.4267204999923706,-8.556135177612305,4.3519463539123535
1764544912766622500,11.52962255859375,1.4315061569213867,-9.129216194152832,4.196412563323975
1764544912783372800,11.546372802734375,1.4685949087142944,-9.56889820098877,3.892524242401123
1764544912800133400,11.56313330078125,1.5565310716629028,-9.859027862548828,3.6329028606414795
1764544912816895700,11.579895751953124,1.5822539329528809,-10.082756042480469,3.435495138168335
1764544912833656000,11.596656005859375,1.4871392250061035,-10.182656288146973,3.2727832794189453
1764544912850417400,11.61341748046875,1.194616675376892,-10.226923942565918,3.125624656677246
1764544912867178000,11.630177978515626,0.9511470198631287,-10.336395263671875,2.9102704524993896
1764544912883939800,11.64693994140625,0.8644071817398071,-10.38365364074707,2.724228620529175
1764544912900681700,11.663681640625,1.1521440744400024,-10.458429336547852,2.517249345779419
1764544912917463000,11.680463134765626,1.5481562614440918,-10.298110008239746,2.35872483253479
1764544912934248200,11.697248291015624,1.7174484729766846,-9.991230964660645,2.297708034515381
1764544912950984700,11.713984619140625,1.7754744291305542,-9.502496719360352,2.2707886695861816
1764544912967745800,11.730745849609375,1.6372889280319214,-9.118449211120605,2.0865414142608643
1764544912984507400,11.74750732421875,1.5595221519470215,-8.563314437866211,1.960319995880127
1764544913001266400,11.764266357421874,1.3495519161224365,-8.164909362792969,1.8239290714263916
1764544913018030800,11.78103076171875,1.0707881450653076,-8.11824893951416,1.7102699279785156
1764544913034791000,11.797791015625,0.7854440212249756,-8.391031265258789,1.5379867553710938
1764544913051551700,11.8145517578125,0.4055834412574768,-8.794221878051758,1.4799607992172241
1764544913068313300,11.831313232421875,0.12382857501506805,-9.364909172058105,1.674377679824829
1764544913085074400,11.848074462890626,-0.01196411345154047,-10.128219604492188,2.000998020172119
1764544913101834800,11.864834716796874,-0.03409772366285324,-10.691729545593262,2.4287149906158447
1764544913118596600,11.8815966796875,-0.03290131315588951,-10.608579635620117,3.1417760848999023
1764544913135358000,11.89835791015625,0.16271193325519562,-10.370492935180664,3.672982692718506
1764544913152095500,11.915095458984375,0.5443671345710754,-10.187442779541016,3.6921253204345703
1764544913168880000,11.931880126953125,1.0157532691955566,-9.965508460998535,3.4091739654541016
1764544913185638000,11.948637939453125,1.2083754539489746,-9.595218658447266,3.204587697982788
1764544913202402000,11.965402099609374,0.9912267923355103,-9.038887977600098,2.9353952407836914
1764544913219164400,11.982164306640625,0.6448656916618347,-8.429315567016602,2.609373092651367
1764544913235925500,11.998925537109375,0.30927231907844543,-8.01356315612793,2.3922245502471924
1764544913252682500,12.0156826171875,-0.003589233849197626,-7.8418779373168945,2.389233350753784
1764544913269453800,12.032453857421874,-0.3332005441188812,-7.929814338684082,2.562114953994751
1764544913286208800,12.049208740234375,-0.5802595019340515,-8.069794654846191,2.7391836643218994
1764544913302969000,12.065968994140626,-0.7076773047447205,-8.23011302947998,2.978466033935547
1764544913319731500,12.0827314453125,-0.6191428303718567,-8.403593063354492,3.2829527854919434
1764544913336492000,12.099491943359375,-0.25722843408584595,-8.614161491394043,3.5581271648406982
1764544913353257500,12.116257568359375,0.3044866919517517,-8.656036376953125,3.666402578353882
1764544913370012700,12.1330126953125,0.6161518096923828,-8.703293800354004,3.6604204177856445
1764544913386778400,12.1497783203125,0.5054838061332703,-8.660223007202148,3.579662561416626
1764544913403511800,12.16651171875,0.06340979784727097,-8.531609535217285,3.5575289726257324
1764544913420298800,12.183298828125,-0.3122633695602417,-8.331808090209961,3.5120654106140137
1764544913437064000,12.20006396484375,-0.43908295035362244,-8.163712501525879,3.3888349533081055
1764544913453795600,12.216795654296876,-0.5491527915000916,-8.207381248474121,3.3505499362945557
1764544913470581800,12.233581787109374,-0.41575294733047485,-8.528617858886719,3.5641093254089355
1764544913487343400,12.25034326171875,-0.06939185410737991,-9.17467975616455,3.689134359359741
1764544913504098000,12.26709814453125,0.30508488416671753,-9.738788604736328,3.690330743789673
1764544913520871700,12.28387158203125,0.6939185857772827,-10.264012336730957,3.762713670730591
1764544913537626400,12.30062646484375,0.9116654396057129,-10.48534870147705,3.885345697402954
1764544913554388500,12.317388427734375,0.5808576941490173,-10.485946655273438,3.9152560234069824
1764544913571149000,12.334149169921876,-0.06759724020957947,-10.316056251525879,3.9565322399139404
1764544913587911000,12.350910888671875,-0.664606511592865,-9.991828918457031,3.902693748474121
1764544913604646000,12.36764599609375,-1.0163514614105225,-9.885348320007324,3.531208038330078
1764544913621424600,12.384424560546876,-1.1174482107162476,-9.89970588684082,3.421138286590576
1764544913638201900,12.401201904296874,-1.0085747241973877,-9.78843879699707,3.3068809509277344
1764544913654952700,12.41795263671875,-0.9768698215484619,-9.586843490600586,3.259622573852539
1764544913671716600,12.434716552734375,-0.9553344249725342,-9.394221305847168,3.122035264968872
1764544913688452400,12.451452392578124,-0.8608179688453674,-9.283554077148438,2.9928228855133057
1764544913705238300,12.46823828125,-0.6915257573127747,-9.407979965209961,2.9964120388031006
1764544913721994500,12.484994384765624,-0.4043870270252228,-9.810572624206543,3.2757742404937744
1764544913738767000,12.50176708984375,0.07477571070194244,-10.202995300292969,3.6119658946990967
1764544913755520300,12.518520263671874,0.5042873620986938,-10.53799057006836,3.7094733715057373
1764544913772286000,12.535285888671876,0.646660327911377,-10.882556915283203,3.6646077632904053
1764544913789045200,12.552045166015626,0.623330295085907,-10.986644744873047,3.606581926345825
1764544913805805600,12.5688056640625,0.5730810165405273,-10.74257755279541,3.6125640869140625
1764544913822568000,12.58556787109375,0.5629115104675293,-10.173684120178223,3.672982692718506
1764544913839328800,12.602328857421876,0.7716853022575378,-9.41635513305664,3.5994033813476562
1764544913856094000,12.619093994140625,1.0414760112762451,-8.61475944519043,3.4157543182373047
1764544913872851200,12.635851318359375,1.1054840087890625,-7.8664045333862305,3.074777126312256
1764544913889606100,12.652606201171874,1.1611171960830688,-7.299305438995361,2.713460922241211
1764544913906379300,12.669379150390625,1.1156535148620605,-7.101299285888672,2.355733871459961
1764544913923135000,12.686135009765625,1.1730812788009644,-7.1958160400390625,2.1020946502685547
1764544913939892200,12.702892333984375,1.414756417274475,-7.39980411529541,2.0237298011779785
1764544913956646400,12.719646484375,1.674377679824829,-7.880163192749023,2.4029922485351562
1764544913973422800,12.7364228515625,1.9130617380142212,-8.673383712768555,3.077768087387085
1764544913990179600,12.7531796875,2.084148406982422,-9.308079719543457,3.772284984588623
1764544914006935000,12.76993505859375,2.2713868618011475,-9.750154495239258,4.209573268890381
1764544914023708000,12.7867080078125,2.437688112258911,-9.985847473144531,4.64805793762207
1764544914040462800,12.803462890625,2.510669231414795,-10.002596855163574,4.992026329040527
1764544914057224200,12.82022412109375,2.317448616027832,-9.859027862548828,4.978865623474121
1764544914073960200,12.836960205078125,1.7545372247695923,-9.672985076904297,4.890929698944092
1764544914090741000,12.853740966796876,1.2867404222488403,-9.414560317993164,4.549354076385498
1764544914107500800,12.870500732421876,1.0031908750534058,-8.952746391296387,4.064209461212158
1764544914124278300,12.8872783203125,0.8141579031944275,-8.358129501342773,3.6424741744995117
1764544914141029600,12.904029541015625,0.6071787476539612,-7.7593255043029785,3.483351469039917
1764544914157777700,12.920777587890624,0.511465847492218,-7.271788120269775,3.6197423934936523
1764544914174560800,12.937560791015626,0.49232324957847595,-7.214958667755127,3.79681134223938
1764544914191290400,12.954290283203125,0.576670229434967,-7.441080093383789,4.025325775146484
1764544914208067600,12.971067626953126,0.6430711150169373,-7.796414375305176,4.271786689758301
1764544914224843800,12.98784375,0.6801598072052002,-8.161319732666016,4.509274482727051
1764544914241597400,13.004597412109375,0.6843472719192505,-8.507680892944336,4.804189682006836
1764544914258353200,13.021353271484376,0.755533754825592,-8.85344409942627,5.170291423797607
1764544914275127000,13.038126953125,0.8063812255859375,-9.061619758605957,5.5136613845825195
1764544914291881700,13.0548818359375,0.7310073375701904,-9.153144836425781,5.614160060882568
1764544914308632600,13.071632568359375,0.6735795736312866,-9.196215629577637,5.542375564575195
1764544914325414100,13.0884140625,0.5623133182525635,-9.113663673400879,5.341976642608643
1764544914342133200,13.10513330078125,0.4049852192401886,-8.778069496154785,5.143372058868408
1764544914358904800,13.12190478515625,0.2763710021972656,-8.427521705627441,4.911268711090088
1764544914375657500,13.138657470703125,0.16271193325519562,-8.09671401977539,4.712066173553467
1764544914392409000,13.1554091796875,0.08793623000383377,-7.832904815673828,4.479363918304443
1764544914409195500,13.172195556640625,0.03290131315588951,-7.6636128425598145,4.246063709259033
1764544914425977600,13.1889775390625,0.04785645380616188,-7.764111042022705,4.13060998916626
1764544914442744000,13.205744140625,0.064606212079525,-8.046463966369629,4.081557273864746
1764544914459492600,13.22249267578125,0.15493527054786682,-8.443074226379395,4.0456647872924805
1764544914476262400,13.239262451171875,0.27337998151779175,-8.816953659057617,4.129413604736328
1764544914493016300,13.256016357421874,0.4007977843284607,-9.0514497756958,4.204787731170654
1764544914509770800,13.272770751953125,0.4205385744571686,-9.066405296325684,4.386044025421143
1764544914526545000,13.289544921875,0.34217363595962524,-8.852845191955566,4.679164886474609
1764544914543299300,13.30629931640625,0.4384847581386566,-8.767302513122559,5.023731231689453
1764544914560051500,13.323051513671874,0.5964110493659973,-8.678169250488281,5.343770980834961
1764544914576831500,13.33983154296875,0.6628118753433228,-8.568099975585938,5.531009674072266
1764544914593583600,13.35658349609375,1.0199406147003174,-8.304290771484375,5.516652584075928
1764544914610335700,13.373335693359374,1.2616157531738281,-8.077570915222168,5.339583873748779
1764544914627114500,13.390114501953125,1.179661512374878,-8.029714584350586,5.292325496673584
1764544914643867100,13.4068671875,1.0079765319824219,-8.178069114685059,5.2109694480896
1764544914660620500,13.42362060546875,1.0037890672683716,-8.282156944274902,5.048257350921631
1764544914677397200,13.440397216796875,0.98703932762146,-8.517251968383789,5.018347263336182
1764544914694128600,13.457128662109374,1.0432707071304321,-8.900103569030762,4.983053207397461
1764544914710911500,13.473911376953126,1.0217353105545044,-9.220144271850586,4.818546772003174
1764544914727647700,13.490647705078125,1.022931694984436,-9.362516403198242,4.683950424194336
1764544914744434200,13.50743408203125,1.1048858165740967,-9.448657989501953,4.606781959533691
1764544914761190000,13.52418994140625,1.1868400573730469,-9.472586631774902,4.6163530349731445
1764544914777962800,13.540962646484376,1.1850453615188599,-9.357132911682129,4.49252462387085
1764544914794692900,13.55769287109375,1.1072787046432495,-9.280562400817871,4.373481750488281
1764544914811470600,13.574470703125,1.083350419998169,-9.308079719543457,4.201198577880859
1764544914828249300,13.591249267578124,1.0701899528503418,-9.469595909118652,4.037888050079346
1764544914845001500,13.60800146484375,1.0031908750534058,-9.550951957702637,3.8703906536102295
1764544914861755000,13.6247548828125,1.0031908750534058,-9.573683738708496,3.655036687850952
1764544914878531800,13.64153173828125,0.9834501147270203,-9.568299293518066,3.483351469039917
1764544914895285500,13.658285400390625,1.088136076927185,-9.55753231048584,3.276970624923706
1764544914912039700,13.675039794921876,1.2556337118148804,-9.522835731506348,3.152543783187866
1764544914928815000,13.691815185546876,1.430907964706421,-9.31166934967041,3.1716864109039307
1764544914945540000,13.7085400390625,1.4368900060653687,-9.492925643920898,3.032304525375366
1764544914962327600,13.72532763671875,1.378864049911499,-9.482755661010742,2.8175487518310547
1764544914979087600,13.742087646484375,1.262213945388794,-9.385248184204102,2.4741785526275635
1764544914995853000,13.75885302734375,1.2191431522369385,-8.97248649597168,2.2127628326416016
1764544915012607500,13.775607421875,1.1545369625091553,-8.794221878051758,1.9268203973770142
1764544915029382100,13.792382080078125,0.9960124492645264,-8.846264839172363,1.6785650253295898
1764544915046130200,13.809130126953125,0.7974081635475159,-9.114859580993652,1.649253010749817
1764544915062904000,13.825904052734375,0.6675975322723389,-9.5324068069458,1.8197416067123413
1764544915079658800,13.84265869140625,0.778863787651062,-10.079765319824219,2.1708884239196777
1764544915096420600,13.859420654296875,0.9290133714675903,-10.641480445861816,2.4837498664855957
1764544915113181200,13.87618115234375,0.9176474809646606,-10.934600830078125,2.7355945110321045
1764544915129937200,13.892937255859374,0.6999006271362305,-10.601400375366211,3.039483070373535
1764544915146710300,13.909710205078126,0.5736792087554932,-9.869794845581055,3.301496982574463
1764544915163456000,13.9264560546875,0.5629115104675293,-9.262018203735352,3.279961585998535
1764544915180235500,13.943235595703126,0.5515456199645996,-9.041280746459961,3.180659532546997
1764544915196959700,13.959959716796876,0.6275177597999573,-9.040681838989258,3.094517946243286
1764544915213694200,13.976694091796874,0.7848458290100098,-9.010771751403809,2.836092948913574
1764544915230500600,13.99350048828125,0.8883354067802429,-8.868997573852539,2.472982168197632
1764544915247271200,14.010271240234376,0.698704183101654,-8.705686569213867,2.1822543144226074
1764544915264031700,14.02703173828125,0.3002992272377014,-8.62014389038086,2.131406784057617
1764544915280794400,14.04379443359375,-0.09690931439399719,-8.617751121520996,2.3048863410949707
1764544915297549800,14.0605498046875,-0.32602208852767944,-8.671588897705078,2.506481647491455
1764544915314322400,14.077322509765626,-0.349352091550827,-8.682954788208008,2.7451658248901367
1764544915331078000,14.094077880859375,-0.3290131092071533,-8.73200798034668,3.0035905838012695
1764544915347838500,14.11083837890625,-0.24167509377002716,-8.785248756408691,3.2416765689849854
1764544915364601300,14.127601318359375,-0.1256231814622879,-8.86660385131836,3.4468610286712646
1764544915381360400,14.1443603515625,-0.019142581149935722,-8.920442581176758,3.5850465297698975
1764544915398122800,14.161122802734376,-0.03888336941599846,-8.914461135864258,3.4749767780303955
1764544915414875400,14.17787548828125,-0.20458634197711945,-8.674580574035645,3.280559778213501
1764544915431654100,14.194654052734375,-0.47617170214653015,-8.345566749572754,3.2159535884857178
1764544915448380400,14.21138037109375,-0.6586244106292725,-8.311469078063965,3.1405797004699707
1764544915465159700,14.22815966796875,-0.802193820476532,-8.322834968566895,3.2410783767700195
1764544915481901300,14.2449013671875,-0.8727820515632629,-8.361719131469727,3.442075490951538
1764544915498690600,14.261690673828125,-0.8422735929489136,-8.511270523071289,3.6705899238586426
1764544915515451100,14.278451171875,-0.5389832854270935,-8.649456024169922,3.793222188949585
1764544915532213200,14.295213134765625,-0.1818545162677765,-8.879166603088379,3.7770705223083496
1764544915548974600,14.311974609375,-0.09272187948226929,-9.185447692871094,3.789632797241211
1764544915565735000,14.32873486328125,-0.16689938306808472,-9.387641906738281,3.9804604053497314
1764544915582495500,14.34549560546875,-0.39601215720176697,-9.441479682922363,4.104887008666992
1764544915599263700,14.362263671875,-0.7585247755050659,-9.7005033493042,3.985246181488037
1764544915616001300,14.379001220703126,-0.9553344249725342,-9.056235313415527,4.395615100860596
1764544915632791800,14.395791748046875,-1.2460623979568481,-8.698508262634277,4.445864677429199
1764544915649533400,14.412533447265625,-1.472184181213379,-8.592626571655273,4.408775806427002
1764544915666299400,14.42929931640625,-1.6498512029647827,-8.578866958618164,4.299304008483887
1764544915683074600,14.446074462890625,-1.7964116334915161,-8.889336585998535,4.059423446655273
1764544915699808000,14.46280810546875,-1.588834285736084,-9.074779510498047,3.981656789779663
1764544915716569300,14.4795693359375,-1.2795618772506714,-9.355937004089355,3.7543387413024902
1764544915733350100,14.49635009765625,-0.9667003750801086,-9.650253295898438,3.3505499362945557
1764544915750108700,14.513108642578125,-0.6951149702072144,-10.077970504760742,2.8977081775665283
1764544915766869000,14.529868896484375,-0.38703906536102295,-10.817951202392578,2.65423846244812
1764544915783632600,14.546632568359374,-0.0891326442360878,-11.866007804870605,2.720041036605835
1764544915800383500,14.563383544921875,0.4133601188659668,-12.268599510192871,2.974876642227173
1764544915817162800,14.580162841796875,0.8805587291717529,-11.989835739135742,3.0370900630950928
1764544915833890600,14.596890625,1.057029366493225,-11.36231803894043,3.1304101943969727
1764544915850675700,14.61367578125,0.9122636318206787,-10.687541961669922,3.2297122478485107
1764544915867438000,14.63043798828125,0.7238288521766663,-10.027721405029297,3.2476584911346436
1764544915884198700,14.64719873046875,0.6436693072319031,-9.189635276794434,3.160918712615967
1764544915900960000,14.6639599609375,0.7304090857505798,-8.24566650390625,3.035893678665161
1764544915917721600,14.6807216796875,0.8901300430297852,-7.459026336669922,2.871387243270874
1764544915934482200,14.697482177734376,1.0037890672683716,-6.853642463684082,2.596810817718506
1764544915951234600,14.714234619140624,1.1443674564361572,-6.622735023498535,2.3820550441741943
1764544915967993300,14.730993408203124,1.428515076637268,-6.783652305603027,2.3324038982391357
1764544915984747500,14.74774755859375,1.8460626602172852,-7.334001541137695,2.3958137035369873
1764544916001527800,14.76452783203125,2.310270309448242,-8.243273735046387,2.490330219268799
1764544916018284800,14.781284912109374,2.7086751461029053,-9.22433090209961,2.7427730560302734
1764544916035054300,14.798054443359375,2.9688947200775146,-9.804591178894043,3.0550363063812256
1764544916051801000,14.814801025390626,2.8486554622650146,-10.232307434082031,3.249453067779541
1764544916068579600,14.83157958984375,2.7080769538879395,-10.493125915527344,3.568894863128662
1764544916085336800,14.8483369140625,2.561516523361206,-10.515857696533203,4.1623148918151855
1764544916102095400,14.865095458984374,2.311466693878174,-10.36510944366455,4.575077056884766
1764544916118854100,14.881854248046874,1.9722840785980225,-9.944570541381836,4.525425910949707
1764544916135620000,14.8986201171875,1.5565310716629028,-9.139984130859375,4.296313285827637
1764544916152378400,14.91537841796875,1.2376874685287476,-8.458627700805664,3.8745779991149902
1764544916169138400,14.932138427734374,1.0977073907852173,-7.929814338684082,3.500101327896118
1764544916185902600,14.948902587890625,1.036690354347229,-7.622934818267822,3.276970624923706
1764544916202637600,14.965637451171874,0.9876375198364258,-7.513463020324707,3.349353551864624
1764544916219392300,14.982392333984375,0.9756734371185303,-7.739584922790527,3.534797191619873
1764544916236164600,14.99916455078125,1.0378868579864502,-8.090133666992188,3.8865420818328857
1764544916252946000,15.01594580078125,1.1222338676452637,-8.36411190032959,4.1383867263793945
1764544916269696500,15.032696533203126,1.2011969089508057,-8.58066177368164,4.304687976837158
1764544916286479400,15.049479248046875,1.2699905633926392,-8.71047306060791,4.404588222503662
1764544916303228200,15.066228271484375,1.2759727239608765,-8.825926780700684,4.4997029304504395
1764544916319977000,15.08297705078125,1.2011969089508057,-8.984451293945312,4.604389190673828
1764544916336763400,15.099763427734375,1.0689935684204102,-9.181260108947754,4.656432628631592
1764544916353507300,15.11650732421875,1.00259268283844,-9.256634712219238,4.508078098297119
1764544916370252800,15.133252685546875,0.9625129103660583,-9.146564483642578,4.3794636726379395
1764544916387046000,15.1500458984375,0.8644071817398071,-8.930013656616211,4.217947959899902
1764544916403798000,15.166798095703125,0.7513462901115417,-8.719446182250977,4.028316974639893
1764544916420517400,15.183517333984375,0.6783652305603027,-8.594420433044434,3.8662030696868896
1764544916437329200,15.2003291015625,0.6915257573127747,-8.540582656860352,3.7663028240203857
1764544916454055400,15.217055419921875,0.7256234884262085,-8.569893836975098,3.7082769870758057
1764544916470798600,15.233798583984376,0.7166503667831421,-8.645866394042969,3.6699917316436768
1764544916487578000,15.250578125,0.6741777658462524,-8.717052459716797,3.6508491039276123
1764544916504365000,15.267364990234375,0.6317051649093628,-8.827720642089844,3.6023945808410645
1764544916521122000,15.2841220703125,0.6658028960227966,-8.852845191955566,3.802793502807617
1764544916537892900,15.300892822265626,0.6376872062683105,-8.805587768554688,4.033102512359619
1764544916554642700,15.317642578125,0.6604190468788147,-8.639883995056152,4.325624942779541
1764544916571393000,15.33439306640625,0.7992027401924133,-8.544769287109375,4.626522541046143
1764544916588179000,15.351178955078124,1.0007981061935425,-8.46461009979248,4.994419097900391
1764544916604932600,15.3679326171875,1.3746765851974487,-8.426324844360352,5.103292465209961
1764544916621663000,15.3846630859375,1.5810575485229492,-8.492127418518066,5.02133846282959
1764544916638462000,15.4014619140625,1.587039589881897,-8.691927909851074,4.8197431564331055
1764544916655216400,15.41821630859375,1.5900306701660156,-9.035896301269531,4.559523582458496
1764544916671950300,15.434950439453125,1.5619150400161743,-9.235098838806152,4.18564510345459
1764544916688741400,15.451741455078125,1.5104693174362183,-9.42054271697998,3.9122650623321533
1764544916705500700,15.468500732421875,1.5260226726531982,-9.558728218078613,3.792025566101074
1764544916722235400,15.4852353515625,1.526620864868164,-9.66819953918457,3.782454490661621
1764544916738998300,15.501998291015624,1.5224334001541138,-9.726225852966309,3.733999729156494
1764544916755784200,15.5187841796875,1.5080764293670654,-9.720842361450195,3.7196428775787354
1764544916772521000,15.53552099609375,1.551147222518921,-9.741181373596191,3.7770705223083496
1764544916789305000,15.55230517578125,1.5272190570831299,-9.70229721069336,3.8057844638824463
1764544916806069500,15.569069580078125,1.516451358795166,-9.592825889587402,3.792025566101074
1764544916822790100,15.5857900390625,1.4344971179962158,-9.582656860351562,3.658625841140747
1764544916839598600,15.6025986328125,1.4380863904953003,-9.481559753417969,3.5204403400421143
1764544916856355000,15.61935498046875,1.5134602785110474,-9.394221305847168,3.3338000774383545
1764544916873076500,15.636076416015625,1.6037893295288086,-9.33559799194336,3.147160053253174
1764544916889879000,15.652879150390625,1.7174484729766846,-9.251849174499512,2.9276185035705566
1764544916906642200,15.66964208984375,1.851446509361267,-9.285347938537598,2.7978079319000244
1764544916923362300,15.6863623046875,2.0195422172546387,-9.355937004089355,2.706282377243042
1764544916940165000,15.7031650390625,2.173879384994507,-9.474979400634766,2.5902304649353027
1764544916956923000,15.7199228515625,2.2600209712982178,-9.54078197479248,2.4508485794067383
1764544916973654800,15.73665478515625,2.2851455211639404,-9.698110580444336,2.306680917739868
1764544916990444000,15.753444091796876,2.1619153022766113,-9.879366874694824,2.1433708667755127
1764544917007203300,15.770203369140624,1.9256240129470825,-9.777671813964844,1.781456470489502
1764544917023988700,15.78698876953125,1.5391831398010254,-9.547362327575684,1.4344971179962158
1764544917040727000,15.80372705078125,1.2005987167358398,-9.29731273651123,1.140179991722107
1764544917057486800,15.82048681640625,1.0737791061401367,-9.097511291503906,1.1419745683670044
1764544917074222300,15.837222412109375,0.9643075466156006,-9.122636795043945,1.3668999671936035
1764544917091003600,15.854003662109376,0.6418746709823608,-9.373882293701172,1.6773686408996582
1764544917107777500,15.870777587890625,0.3248256742954254,-9.692726135253906,2.0644078254699707
1764544917124506400,15.88750634765625,0.17108681797981262,-9.978668212890625,2.7140591144561768
1764544917141292000,15.9042919921875,0.4486542344093323,-10.331011772155762,3.342773199081421
1764544917158055700,15.9210556640625,0.8500502705574036,-10.637292861938477,3.569493293762207
1764544917174826200,15.937826171875,1.327418327331543,-10.40638542175293,3.6646077632904053
1764544917191577000,15.9545771484375,1.5140584707260132,-9.902098655700684,3.5228331089019775
1764544917208345300,15.971345458984375,1.4476577043533325,-9.55633544921875,3.242274761199951
1764544917225108000,15.98810791015625,1.1700903177261353,-9.168100357055664,2.9246275424957275
1764544917241875200,16.004875244140624,0.7483552694320679,-8.7505521774292,2.569293260574341
1764544917258628000,16.021628173828127,0.3236292600631714,-8.515457153320312,2.194218397140503
1764544917275362000,16.038362060546874,0.02871387079358101,-8.280363082885742,2.0380866527557373
1764544917292144400,16.055144287109375,-0.2021935135126114,-8.195417404174805,2.048854351043701
1764544917308906000,16.071906005859375,-0.3116651475429535,-8.234899520874023,2.163709878921509
1764544917325663200,16.088663330078123,-0.2913261651992798,-8.336593627929688,2.407179594039917
1764544917342428000,16.105427978515625,-0.31405797600746155,-8.352147102355957,2.713460922241211
1764544917359195000,16.12219482421875,-0.39481574296951294,-8.37727165222168,2.991028308868408
1764544917375950000,16.1389501953125,-0.4713860750198364,-8.311469078063965,3.2165517807006836
1764544917392714000,16.1557138671875,-0.5084748268127441,-8.483752250671387,3.077169895172119
1764544917409472500,16.172472412109375,-0.5479564070701599,-8.26540756225586,3.36969256401062
1764544917426233300,16.1892333984375,-0.6538388133049011,-8.270193099975586,3.3367912769317627
1764544917442989600,16.205989501953123,-0.8009973764419556,-8.361719131469727,3.355933666229248
1764544917459763500,16.222763427734375,-0.8997012972831726,-8.572287559509277,3.360121250152588
1764544917476507400,16.23950732421875,-0.9236295223236084,-8.521439552307129,3.6711881160736084
1764544917493260500,16.256260498046874,-0.8434699773788452,-8.321041107177734,3.954139471054077
1764544917510043400,16.27304345703125,-0.597607433795929,-8.393424034118652,4.120440483093262
1764544917526775800,16.28977587890625,-0.29850462079048157,-8.594420433044434,4.218546390533447
1764544917543534000,16.3065341796875,-0.08434699475765228,-8.961718559265137,4.192225456237793
1764544917560299800,16.3232998046875,-0.12023933976888657,-9.18724250793457,4.205984115600586
1764544917577084700,16.340084716796873,-0.45284169912338257,-9.498908042907715,4.18145751953125
1764544917593801700,16.3568017578125,-1.0157532691955566,-9.778867721557617,4.1389851570129395
1764544917610574600,16.37357470703125,-1.435693621635437,-10.094121932983398,3.823132276535034
1764544917627327200,16.3903271484375,-1.677966833114624,-10.409377098083496,3.4779677391052246
1764544917644141600,16.4071416015625,-1.4518451690673828,-10.574481010437012,3.1657042503356934
1764544917660892700,16.423892578125,-1.155733346939087,-10.557731628417969,2.820539712905884
1764544917677617700,16.44061767578125,-1.0049854516983032,-10.363913536071777,2.5292134284973145
1764544917694422300,16.45742236328125,-0.8380861282348633,-10.315458297729492,2.3569302558898926
1764544917711177000,16.474177001953127,-0.6628118753433228,-10.612168312072754,2.379063844680786
1764544917727883300,16.49088330078125,-0.2883351147174835,-11.076973915100098,2.7008986473083496
1764544917744677600,16.507677734375,0.25244277715682983,-11.402996063232422,3.1040892601013184
1764544917761466400,16.52446630859375,0.6586244106292725,-11.239686012268066,3.2757742404937744
1764544917786608400,16.5496083984375,0.5653043389320374,-10.402796745300293,3.513859987258911
1764544917803347500,16.566347412109376,0.2913261651992798,-9.81954574584961,3.493520975112915
1764544917820126000,16.5831259765625,0.03170489892363548,-9.287740707397461,3.3056845664978027
1764544917836885800,16.5998857421875,0.024526432156562805,-8.621339797973633,3.036491870880127
1764544917853622300,16.616622314453124,0.20578274130821228,-8.111668586730957,2.7463622093200684
1764544917870408700,16.63340869140625,0.4001995921134949,-7.88913631439209,2.5603201389312744
1764544917887128600,16.650128662109374,0.5467599630355835,-7.758727550506592,2.287538528442383
1764544917903910100,16.66691015625,0.8093722462654114,-7.77607536315918,2.0333011150360107
1764544917920679200,16.68367919921875,1.1515458822250366,-7.9657063484191895,1.887937068939209
1764544917937455400,16.700455322265626,1.5451651811599731,-8.078767776489258,1.866999864578247
1764544917954178800,16.7171787109375,1.9160526990890503,-8.236693382263184,1.9465612173080444
1764544917970988000,16.733988037109373,2.15653133392334,-8.740981101989746,2.368894338607788
1764544917987737900,16.75073779296875,2.396411895751953,-9.56650447845459,3.0245277881622314
1764544918004466200,16.767466064453124,2.606382131576538,-10.325628280639648,3.641875982284546
1764544918021267200,16.78426708984375,2.702693223953247,-10.816156387329102,3.930809497833252
1764544918038025200,16.801025146484374,2.5645077228546143,-10.841879844665527,4.304089546203613
1764544918054760400,16.817760498046876,2.1170499324798584,-10.542776107788086,4.584648132324219
1764544918071534000,16.8345341796875,1.5840486288070679,-9.992427825927734,4.445266246795654
1764544918088312800,16.851312744140625,1.2508480548858643,-9.240483283996582,4.191627025604248
1764544918105076500,16.868076416015626,0.9457631707191467,-8.522037506103516,3.913461446762085
1764544918121832700,16.884832763671874,0.5754738450050354,-7.9280195236206055,3.5874392986297607
1764544918138557000,16.901556884765625,0.268594354391098,-7.458428382873535,3.404388427734375
1764544918155353000,16.91835302734375,0.16450655460357666,-7.10429048538208,3.4061830043792725
1764544918172086000,16.9350859375,0.27038896083831787,-7.114459991455078,3.6496527194976807
1764544918188878600,16.951878662109376,0.4995017349720001,-7.375277519226074,4.126422882080078
1764544918205617700,16.96861767578125,0.6143572330474854,-7.792825222015381,4.47278356552124
1764544918222395400,16.9853955078125,0.6329016089439392,-8.177471160888672,4.695914268493652
1764544918239157500,17.002157470703125,0.6556333899497986,-8.503493309020996,4.866403102874756
1764544918255883500,17.018883544921874,0.7166503667831421,-8.800801277160645,4.984249591827393
1764544918272678100,17.03567822265625,0.6520441770553589,-9.083752632141113,5.0117669105529785
1764544918289443000,17.052443115234375,0.4953143000602722,-9.251250267028809,4.849055290222168
1764544918306196200,17.0691962890625,0.24945175647735596,-9.192625999450684,4.591826438903809
1764544918322953500,17.085953369140626,0.2189432680606842,-9.058030128479004,4.372883319854736
1764544918339734800,17.10273486328125,0.1495514214038849,-8.851051330566406,4.1491546630859375
1764544918356462300,17.11946240234375,0.15672987699508667,-8.668598175048828,3.996612071990967
1764544918373247000,17.1362470703125,0.21296121180057526,-8.504690170288086,3.9732820987701416
1764544918389984800,17.15298486328125,0.32183465361595154,-8.38564682006836,4.0456647872924805
1764544918406751700,17.169751708984375,0.45164528489112854,-8.37547779083252,4.102494239807129
1764544918423506200,17.186506103515626,0.5563312768936157,-8.304290771484375,4.212564468383789
1764544918440292600,17.203292724609376,0.5581258535385132,-8.486145973205566,4.1730828285217285
1764544918457028600,17.220028564453123,0.29012975096702576,-8.515457153320312,4.303491592407227
1764544918473783800,17.23678369140625,1.3770694732666016,-8.86361312866211,4.484747886657715
1764544918490582300,17.253582275390624,1.207179069519043,-8.6243314743042,4.453042984008789
1764544918507315500,17.2703154296875,-0.5838487148284912,-8.754739761352539,4.60139799118042
1764544918524099000,17.28709912109375,0.16151553392410278,-8.930013656616211,4.789234638214111
1764544918540860700,17.303860595703124,1.1431710720062256,-8.84207820892334,4.95912504196167
1764544918557630000,17.3206298828125,1.2915260791778564,-8.846264839172363,4.905884742736816
1764544918574357500,17.337357421875,1.2945170402526855,-9.011369705200195,5.306682586669922
1764544918591143700,17.354143798828126,1.4817553758621216,-9.059226989746094,5.387440204620361
1764544918607921700,17.370921630859375,1.794616937637329,-8.7505521774292,5.1152567863464355
1764544918624667100,17.387667236328124,1.8299111127853394,-9.06401252746582,4.611567497253418
1764544918641387800,17.4043876953125,1.9860427379608154,-9.534799575805664,4.001397609710693
1764544918658182100,17.42118212890625,1.7443677186965942,-9.91705322265625,3.665804386138916
1764544918674930400,17.437930419921877,1.1880364418029785,-9.926624298095703,3.442673683166504
1764544918691712000,17.4547119140625,0.7339983582496643,-10.673185348510742,2.9958138465881348
1764544918708447500,17.471447509765625,0.7495517134666443,-11.342577934265137,2.705684185028076
1764544918725234000,17.48823388671875,0.98703932762146,-11.172687530517578,2.5334010124206543
1764544918741990000,17.504989990234375,1.317248821258545,-11.054841041564941,2.977867841720581
1764544918758761500,17.521761474609374,1.7515461444854736,-10.77129077911377,3.159722328186035
1764544918775512000,17.538511962890624,1.7934205532073975,-10.162318229675293,3.071187973022461
1764544918792286200,17.5552861328125,1.6941183805465698,-9.494122505187988,2.4293131828308105
1764544918809016000,17.57201611328125,1.1994023323059082,-8.591429710388184,1.578664779663086
1764544918825805800,17.588805908203124,1.059422254562378,-8.373085021972656,1.8478572368621826
1764544918842565000,17.605565185546876,0.6065805554389954,-7.763513088226318,1.2448660135269165
1764544918859287800,17.622287841796876,0.008374879136681557,-7.8418779373168945,1.2705888748168945
1764544918876086300,17.639086181640625,-0.17347964644432068,-7.805387496948242,1.6396816968917847
1764544918892820700,17.65582080078125,-0.20578274130821228,-8.418548583984375,1.7611174583435059
1764544918909596700,17.6725966796875,-0.33020952343940735,-9.759127616882324,2.434098720550537
1764544918926348500,17.6893486328125,0.11724831163883209,-10.334601402282715,2.913261651992798
1764544918943131400,17.70613134765625,0.39840495586395264,-11.044671058654785,3.3200414180755615
1764544918959868700,17.72286865234375,0.380458801984787,-11.230712890625,3.195016384124756
1764544918976652000,17.739652099609376,0.5533402562141418,-10.705488204956055,3.541377544403076
1764544918993409300,17.7564091796875,0.6101697683334351,-10.082756042480469,3.6538400650024414
1764544919010164500,17.77316455078125,0.4450650215148926,-9.468399047851562,3.2512478828430176
1764544919026912300,17.789912353515625,0.15314064919948578,-9.045467376708984,2.8809585571289062
1764544919043693000,17.806693115234374,-0.22013968229293823,-8.780462265014648,2.1948165893554688
1764544919060441000,17.823441162109376,-0.3858426511287689,-8.709874153137207,1.3298112154006958
1764544919077216000,17.840216064453124,-0.3475574851036072,-8.658429145812988,1.6600207090377808
1764544919093963500,17.856963623046877,-0.3852444589138031,-8.701499938964844,1.6265212297439575
1764544919110718700,17.87371875,-0.09810572862625122,-8.719446182250977,1.591825246810913
1764544919127505400,17.89050537109375,-0.13698910176753998,-8.48734188079834,2.0572292804718018
1764544919144249300,17.907249267578123,-0.37507495284080505,-8.458029747009277,2.8085756301879883
1764544919161005000,17.924005126953126,-0.7680960893630981,-8.309076309204102,3.432504177093506
1764544919177763800,17.940763916015626,-1.0151549577713013,-8.412566184997559,3.8392839431762695
1764544919194550800,17.95755078125,-0.9852447509765625,-8.461020469665527,4.06839656829834
1764544919211289000,17.9742890625,-0.8464609980583191,-8.4562349319458,4.077369689941406
1764544919228073500,17.991073486328126,-0.745364248752594,-8.565108299255371,3.813561201095581
1764544919244825600,18.00782568359375,-0.6777670383453369,-8.707481384277344,3.5736806392669678
1764544919261579300,18.024579345703124,-0.6771687865257263,-8.778069496154785,3.487539052963257
1764544919278357500,18.041357421875,-0.8644071817398071,-8.735597610473633,3.497708559036255
1764544919295118800,18.058118896484373,-1.031306505203247,-8.785248756408691,3.7034912109375
1764544919311905500,18.074905517578124,-1.0456634759902954,-8.757730484008789,3.875774383544922
1764544919328641300,18.091641357421874,-0.9541380405426025,-8.757730484008789,4.004986763000488
1764544919345403000,18.10840283203125,-0.7740781307220459,-9.007183074951172,4.12761926651001
1764544919362186200,18.125186279296877,-0.4247260093688965,-8.868398666381836,4.35673189163208
1764544919378925000,18.141925048828124,-0.5264210104942322,-8.800801277160645,4.280759811401367
1764544919395660800,18.158660888671875,-0.8644071817398071,-9.050253868103027,4.252045631408691
1764544919412463600,18.175463623046873,-1.3154542446136475,-9.0514497756958,4.037888050079346
1764544919429184800,18.192184814453125,-1.8616160154342651,-9.683155059814453,3.716651678085327
1764544919445970400,18.208970458984375,-1.9878374338150024,-10.023533821105957,3.686741590499878
1764544919462726100,18.22572607421875,-1.5595221519470215,-10.237093925476074,3.5742788314819336
1764544919479499300,18.242499267578125,-1.2089736461639404,-10.316655158996582,3.4965121746063232
1764544919496252000,18.259251953125,-0.9702895879745483,-10.268199920654297,3.3571300506591797
1764544919513005600,18.276005615234375,-0.7238288521766663,-10.481760025024414,3.187838077545166
1764544919529770800,18.292770751953125,-0.4085744619369507,-10.882556915283203,3.19441819190979
1764544919546545000,18.309544921875,0.18125630915164948,-11.414361953735352,3.4438700675964355
1764544919563299300,18.32629931640625,0.7328019142150879,-11.412567138671875,3.4707891941070557
1764544919580061000,18.34306103515625,1.090528964996338,-10.750951766967773,3.4103705883026123
1764544919596820500,18.359820556640624,1.1647064685821533,-10.007980346679688,3.2416765689849854
1764544919613583000,18.3765830078125,0.7776673436164856,-9.631111145019531,3.3206396102905273
1764544919630345700,18.393345703125,0.22911277413368225,-9.402596473693848,3.280559778213501
1764544919647105300,18.410105224609374,0.005982056725770235,-9.172286987304688,3.1004998683929443
1764544919663867000,18.426866943359375,0.09690931439399719,-8.734400749206543,2.7726831436157227
1764544919680595000,18.443594970703124,0.38225340843200684,-8.14636516571045,2.2337000370025635
1764544919697390000,18.46039013671875,0.5964110493659973,-7.551149845123291,1.8915263414382935
1764544919714127000,18.477127197265624,0.7585247755050659,-7.530810832977295,1.7096717357635498
1764544919730908200,18.493908203125,1.0390832424163818,-7.2095746994018555,1.9160526990890503
1764544919747672000,18.510672119140626,1.1443674564361572,-7.0408806800842285,2.6141586303710938
1764544919764457700,18.527457763671876,1.0534402132034302,-7.590033531188965,2.430509567260742
1764544919781190700,18.544190673828126,1.9974087476730347,-8.291728973388672,3.514458179473877
1764544919797964300,18.56096435546875,2.292922258377075,-8.984451293945312,4.222733974456787
1764544919814694100,18.577694091796875,2.4388844966888428,-9.556933403015137,4.78385066986084
1764544919831480800,18.594480712890626,2.438286304473877,-10.039685249328613,4.758127689361572
1764544919848241700,18.61124169921875,2.2342982292175293,-10.279565811157227,4.647459983825684
1764544919864979200,18.627979248046874,1.82273268699646,-10.41356372833252,4.380660057067871
1764544919881764900,18.644764892578124,1.4315061569213867,-10.16889762878418,4.004986763000488
1764544919898500600,18.66150048828125,0.9822536706924438,-9.904491424560547,3.6394832134246826
1764544919915255800,18.678255859375,0.5168496966362,-9.3457670211792,3.5718860626220703
1764544919932001800,18.695001708984375,0.24646073579788208,-8.702695846557617,3.207578659057617
1764544919948810000,18.71181005859375,0.1052841991186142,-7.960920810699463,3.187239646911621
1764544919965550000,18.728550048828126,0.33379876613616943,-7.3848490715026855,3.022135019302368
1764544919982332200,18.745332275390624,0.5557330846786499,-7.542177200317383,2.991626501083374
1764544919999088400,18.76208837890625,0.6652047038078308,-7.7700934410095215,3.717249870300293
1764544920015860700,18.77886083984375,0.8835497498512268,-8.046463966369629,3.6436707973480225
1764544920032615700,18.79561572265625,1.0211371183395386,-8.288139343261719,4.086941242218018
1764544920049378600,18.812378662109374,1.043868899345398,-8.605188369750977,4.281357765197754
1764544920066128400,18.82912841796875,0.9146564602851868,-9.061619758605957,4.671986103057861
1764544920082900700,18.845900634765623,0.8273184299468994,-9.364909172058105,4.938187599182129
1764544920099662000,18.862662109375,0.6083751320838928,-9.534201622009277,5.062614440917969
1764544920116397000,18.87939697265625,0.46719861030578613,-9.754940032958984,5.0907301902771
1764544920133184500,18.8961845703125,0.5712863802909851,-9.711270332336426,4.908875465393066
1764544920149939700,18.912939697265625,0.7848458290100098,-9.56471061706543,4.573880672454834
1764544920166687200,18.929687255859374,0.844068169593811,-9.323633193969727,4.201796531677246
1764544920183456800,18.946456787109376,0.8171489238739014,-9.068199157714844,3.8733816146850586
1764544920200229600,18.963229736328124,0.7046862840652466,-8.918647766113281,3.6400814056396484
1764544920216967400,18.979967529296875,0.4133601188659668,-8.479565620422363,3.724428415298462
1764544920233770800,18.996770751953125,0.21774685382843018,-8.073982238769531,3.817748546600342
1764544920250510300,19.01351025390625,0.3445664644241333,-8.264211654663086,3.830909013748169
1764544920267280100,19.030280029296875,0.5653043389320374,-8.331808090209961,3.8775691986083984
1764544920292408600,19.05540869140625,0.706480860710144,-8.560322761535645,3.761517286300659
1764544920309178000,19.07217822265625,0.7597211599349976,-8.57468032836914,3.8470606803894043
1764544920325914000,19.0889140625,0.7166503667831421,-8.538188934326172,4.086342811584473
1764544920342656500,19.105656494140625,0.5946164131164551,-8.735597610473633,4.401597023010254
1764544920359456300,19.122456298828126,0.6406782865524292,-8.436494827270508,4.728217601776123
1764544920376229400,19.1392294921875,0.7052844762802124,-8.614161491394043,4.951946258544922
1764544920392983000,19.155983154296877,1.0558329820632935,-8.681160926818848,5.088935375213623
1764544920409747200,19.172747314453126,1.2376874685287476,-8.656036376953125,4.9740800857543945
1764544920426514200,19.18951416015625,1.3621143102645874,-8.69791030883789,4.8059844970703125
1764544920443266600,19.2062666015625,1.4536397457122803,-8.858827590942383,4.436891555786133
1764544920460030500,19.223030517578124,1.4452649354934692,-9.049057006835938,4.2107696533203125
1764544920476788200,19.239788330078124,1.643869161605835,-9.339784622192383,4.01754903793335
1764544920493525200,19.256525146484375,1.7491533756256104,-9.765707015991211,4.053441524505615
1764544920510314000,19.27331396484375,1.5607185363769531,-10.17308521270752,3.9661035537719727
1764544920527075300,19.290075439453126,1.2801600694656372,-10.426126480102539,3.7220356464385986
1764544920543804700,19.3068046875,1.1210373640060425,-10.444670677185059,3.435495138168335
1764544920560596700,19.3235966796875,1.1569297313690186,-10.232307434082031,3.283550977706909
1764544920577341000,19.3403408203125,1.2400803565979004,-9.878170013427734,3.2512478828430176
1764544920594102300,19.357102294921877,1.29810631275177,-9.404989242553711,3.4061830043792725
1764544920610882000,19.373882080078126,1.293320655822754,-8.836095809936523,3.614956855773926
1764544920627643100,19.39064306640625,1.1018948554992676,-8.361719131469727,3.6029927730560303
1764544920644363800,19.40736376953125,0.8482556343078613,-7.959724426269531,3.390629768371582
1764544920661172700,19.4241728515625,0.8171489238739014,-7.786244869232178,3.152543783187866
1764544920677926700,19.4409267578125,1.0671988725662231,-7.875975608825684,2.9694929122924805
1764544920694653700,19.45765380859375,1.3902299404144287,-8.13260555267334,2.837887763977051
1764544920711449900,19.474449951171874,1.5463616847991943,-8.504091262817383,2.620738983154297
1764544920728211200,19.491211181640626,1.500898003578186,-8.85224723815918,2.160120725631714
1764544920744940000,19.50793994140625,1.4033905267715454,-9.33440113067627,1.7276179790496826
1764544920761709000,19.524708984375,1.4368900060653687,-9.869794845581055,1.6199408769607544
1764544920778469400,19.541469482421874,1.4452649354934692,-10.176076889038086,1.6713865995407104
1764544920795228200,19.558228271484374,1.3555340766906738,-10.809576034545898,1.7880367040634155
1764544920812006400,19.57500634765625,1.31365966796875,-10.925029754638672,1.8161523342132568
1764544920828740600,19.59174072265625,1.2538390159606934,-10.685748100280762,1.846660852432251
1764544920845529000,19.608529052734376,1.0301101207733154,-10.304092407226562,2.087737798690796
1764544920862277000,19.625277099609374,0.8315058946609497,-9.93380355834961,2.5399811267852783
1764544920879023000,19.642023193359375,0.9349954724311829,-9.591031074523926,3.0957143306732178
1764544920895802400,19.65880224609375,1.220937728881836,-9.300901412963867,3.6604204177856445
1764544920912574700,19.67557470703125,1.4799607992172241,-9.239884376525879,4.004388809204102
1764544920929335300,19.692335205078123,1.607378602027893,-9.507881164550781,4.064807415008545
1764544920946082800,19.709082763671876,1.6426727771759033,-9.797411918640137,3.6951162815093994
1764544920962870500,19.72587060546875,1.3968101739883423,-9.781859397888184,3.1316065788269043
1764544920979631600,19.742631591796876,1.028315544128418,-9.496515274047852,2.478964328765869
1764544920996384500,19.759384521484375,0.5880361795425415,-9.208179473876953,1.960319995880127
1764544921013147400,19.7761474609375,0.22073788940906525,-8.952746391296387,1.5565310716629028
1764544921029916200,19.792916259765626,-0.04007977992296219,-8.786444664001465,1.472184181213379
1764544921055062800,19.818062744140626,-0.22073788940906525,-8.812167167663574,1.7928223609924316
1764544921071810000,19.83481005859375,-0.09092725813388824,-8.83250617980957,2.084148406982422
1764544921088580000,19.851580078125,0.11605189740657806,-8.81934642791748,2.4083759784698486
1764544921105341700,19.868341796875,0.3236292600631714,-8.85344409942627,2.7810580730438232
1764544921122106600,19.885106689453124,0.4737788736820221,-8.912068367004395,3.1818559169769287
1764544921138864000,19.901864013671876,0.5246263742446899,-9.181859016418457,3.4911282062530518
1764544921155625700,19.918625732421877,0.6209374666213989,-9.159127235412598,3.7256247997283936
1764544921172384000,19.935384033203125,0.605384111404419,-9.043673515319824,3.7543387413024902
1764544921189120000,19.9521201171875,0.34995031356811523,-8.929415702819824,3.617349624633789
1764544921205916000,19.968916015625,-0.0364905446767807,-8.62313461303711,3.366701364517212
1764544921222634000,19.985634033203127,-0.25304099917411804,-8.593822479248047,3.1519455909729004
1764544921239432700,20.0024326171875,-0.3690928816795349,-8.545368194580078,3.071187973022461
1764544921256193000,20.019193115234376,-0.41216370463371277,-8.550751686096191,3.057429075241089
1764544921272929300,20.03592919921875,-0.43549370765686035,-8.612964630126953,3.104687452316284
1764544921289710000,20.0527099609375,-0.5772684812545776,-8.734400749206543,3.229114055633545
1764544921306484200,20.069484130859376,-0.5276173949241638,-8.877969741821289,3.376272678375244
1764544921323204000,20.0862041015625,-0.31046873331069946,-9.026923179626465,3.4612178802490234
1764544921340000300,20.103000244140624,-0.040677983313798904,-9.165108680725098,3.5168511867523193
1764544921356761900,20.119761962890625,0.21954147517681122,-9.312865257263184,3.5635111331939697
1764544921373498000,20.136498046875,0.2153540402650833,-9.394221305847168,3.572484254837036
1764544921390284300,20.1532841796875,-0.16809579730033875,-9.390034675598145,3.52103853225708
1764544921407046000,20.1700458984375,-0.6041877269744873,-9.429515838623047,3.397808074951172
1764544921423780600,20.186780517578125,-1.0043872594833374,-9.722038269042969,3.22552490234375
1764544921440543200,20.203543212890626,-1.0103694200515747,-10.048060417175293,3.372683525085449
1764544921457329700,20.22032958984375,-0.722034215927124,-10.16171932220459,3.3373894691467285
1764544921474065000,20.23706494140625,-0.5647061467170715,-10.060623168945312,3.256033420562744
1764544921490852400,20.253852294921874,-0.4899304509162903,-9.93559741973877,3.146561861038208
1764544921507613700,20.27061376953125,-0.3595215976238251,-10.021141052246094,3.064607620239258
1764544921524348400,20.287348388671877,-0.14656038582324982,-10.27896785736084,3.077169895172119
1764544921541127200,20.304127197265625,0.2111666053533554,-10.522438049316406,3.19441819190979
1764544921557907000,20.320906982421874,0.48873403668403625,-10.493125915527344,3.1651060581207275
1764544921574636300,20.33763623046875,0.5808576941490173,-10.156933784484863,2.984447956085205
1764544921591420000,20.354419921875,0.5000999569892883,-9.806385040283203,2.761317253112793
1764544921608181800,20.371181640625,0.268594354391098,-9.658628463745117,2.734398126602173
1764544921624917000,20.3879169921875,0.0849452018737793,-9.496515274047852,2.7834508419036865
1764544921641704700,20.40470458984375,-0.02153540402650833,-9.339186668395996,2.8660032749176025
1764544921658465500,20.421465576171876,0.01615155301988125,-9.262018203735352,2.8803603649139404
1764544921675201000,20.438200927734375,0.2638086974620819,-9.10827922821045,2.8277182579040527
1764544921691988200,20.45498828125,0.5401797294616699,-8.96829891204834,2.7942185401916504
1764544921708750000,20.47175,0.7447660565376282,-8.818747520446777,2.6985056400299072
1764544921725490700,20.48849072265625,0.9367900490760803,-8.866005897521973,2.6350958347320557
1764544921742272500,20.5052724609375,1.1150553226470947,-9.013164520263672,2.5190439224243164
1764544921759034000,20.5220341796875,1.2269197702407837,-9.217751502990723,2.3599212169647217
1764544921775770600,20.5387705078125,1.5140584707260132,-9.240483283996582,2.201396942138672
1764544921792552400,20.555552490234376,1.6588243246078491,-9.359525680541992,2.094916343688965
1764544921809322000,20.572322021484375,1.755135416984558,-9.378069877624512,2.1236300468444824
1764544921826053000,20.58905322265625,1.8448662757873535,-9.315258979797363,2.0039889812469482
1764544921842840600,20.605840576171875,1.934597134590149,-9.19023323059082,1.9752750396728516
1764544921859601400,20.622601318359376,2.1056840419769287,-8.989236831665039,2.1577277183532715
1764544921876337000,20.6393369140625,2.331207513809204,-8.899505615234375,2.4634108543395996
1764544921893124900,20.656124755859373,2.4466612339019775,-8.86780071258545,2.8839495182037354
1764544921909880000,20.672880126953125,2.3718855381011963,-9.007183074951172,3.136990547180176
1764544921926627000,20.689626953125,2.268994092941284,-9.172286987304688,3.4091739654541016
1764544921943383000,20.706383056640625,2.256431818008423,-9.33559799194336,3.55214524269104
1764544921960169700,20.723169677734376,2.2241287231445312,-9.484550476074219,3.604189157485962
1764544921976929000,20.739928955078124,2.0715861320495605,-9.575477600097656,3.527618885040283
1764544921993692400,20.7566923828125,1.673181176185608,-9.533005714416504,3.4953157901763916
1764544922010421000,20.7734208984375,1.3076776266098022,-9.346963882446289,3.4737801551818848
1764544922027208700,20.790208740234377,1.1700903177261353,-9.031708717346191,3.394218921661377
1764544922043972600,20.80697265625,1.1850453615188599,-8.63330364227295,3.329014539718628
1764544922060742400,20.823742431640625,1.287936806678772,-8.37966537475586,3.2967114448547363
1764544922077485300,20.8404853515625,1.4781662225723267,-8.187042236328125,3.3684961795806885
1764544922094261000,20.857260986328125,1.6450655460357666,-8.087141990661621,3.468994617462158
1764544922111022600,20.874022705078126,1.6713865995407104,-8.293522834777832,3.6544384956359863
1764544922127761700,20.89076171875,1.5726827383041382,-8.395816802978516,3.845266103744507
1764544922144534800,20.90753466796875,1.3878371715545654,-8.583653450012207,3.988835334777832
1764544922161315800,20.92431591796875,1.1886346340179443,-8.757730484008789,4.136591911315918
1764544922178041300,20.941041259765626,1.0031908750534058,-8.882756233215332,4.261018753051758
1764544922194803200,20.95780322265625,0.9272187948226929,-8.946166038513184,4.414159774780273
1764544922211590100,20.974590087890626,0.9272187948226929,-8.96530818939209,4.390231132507324
1764544922228317000,20.99131689453125,0.9702895879745483,-8.964112281799316,4.280161380767822
1764544922245112800,21.00811279296875,0.9409775137901306,-8.954540252685547,4.098307132720947
1764544922261848300,21.024848388671874,0.8159525394439697,-8.906683921813965,4.046263217926025
1764544922278609400,21.041609375,0.6903293132781982,-8.815756797790527,3.9948174953460693
1764544922295396900,21.05839697265625,0.6317051649093628,-8.71047306060791,3.923630952835083
1764544922312158500,21.075158447265625,0.5982056856155396,-8.74337387084961,3.8901314735412598
1764544922328893200,21.09189306640625,0.6478567123413086,-8.94377326965332,3.841078519821167
1764544922345681200,21.10868115234375,0.6993024349212646,-8.776275634765625,3.913461446762085
1764544922362442500,21.1254423828125,0.5736792087554932,-8.676374435424805,3.9523448944091797
1764544922379187000,21.14218701171875,0.44446679949760437,-8.62014389038086,4.101297855377197
1764544922395965200,21.158965087890625,0.38644084334373474,-8.525029182434082,4.211966037750244
1764544922412726500,21.1757265625,0.5102694034576416,-8.449654579162598,4.374678134918213
1764544922429450000,21.192449951171874,0.6981059908866882,-8.426324844360352,4.666004180908203
1764544922446249200,21.209249267578127,0.8536394834518433,-8.612964630126953,4.927420139312744
1764544922463010300,21.22601025390625,1.0037890672683716,-8.734400749206543,5.14157772064209
1764544922479772400,21.2427724609375,1.2831511497497559,-8.900702476501465,5.063212871551514
1764544922496533200,21.259533203125,1.4081761837005615,-8.980263710021973,4.957330226898193
1764544922513291800,21.276291748046877,1.3710874319076538,-9.123832702636719,4.746761798858643
1764544922530030000,21.293030029296876,1.4081761837005615,-9.046664237976074,4.622334957122803
1764544922546817300,21.3098173828125,1.3728820085525513,-8.944969177246094,4.312464714050293
1764544922563572200,21.326572265625,1.4297115802764893,-8.947361946105957,3.943969964981079
1764544922580320300,21.3433203125,1.5984054803848267,-9.160921096801758,3.631108283996582
1764544922597107700,21.360107666015626,1.7790635824203491,-9.556933403015137,3.428316593170166
1764544922613830000,21.376829833984374,1.9357935190200806,-10.000802040100098,3.1722846031188965
1764544922630600400,21.393600341796876,2.187039852142334,-10.229914665222168,3.136990547180176
1764544922647385600,21.410385498046875,2.331207513809204,-10.29153060913086,3.0831520557403564
1764544922664146200,21.427146240234375,2.2067806720733643,-10.295717239379883,3.064607620239258
1764544922680888300,21.443888427734375,1.8903298377990723,-10.316056251525879,3.032304525375366
1764544922697669600,21.460669677734376,1.6875381469726562,-10.191031455993652,2.8181469440460205
1764544922714405400,21.4774052734375,1.6217355728149414,-9.907482147216797,2.5184457302093506
1764544922731183400,21.494183349609376,1.5996019840240479,-9.618548393249512,2.3473589420318604
1764544922747953700,21.51095361328125,1.587039589881897,-9.298508644104004,2.3156540393829346
1764544922764698600,21.52769873046875,1.6612170934677124,-9.038887977600098,2.3024935722351074
1764544922781451500,21.544451416015626,1.8646070957183838,-8.822935104370117,2.2163519859313965
1764544922798237400,21.561237548828124,2.017747640609741,-8.760123252868652,2.173281192779541
1764544922814998800,21.577998779296873,1.9746768474578857,-8.812167167663574,2.1397817134857178
1764544922831731200,21.594731201171875,1.8861424922943115,-9.123832702636719,2.0093727111816406
1764544922848528000,21.61152783203125,1.669592022895813,-9.027522087097168,1.8526428937911987
1764544922865282300,21.6282822265625,1.4165509939193726,-9.109476089477539,1.9106688499450684
1764544922882042400,21.64504248046875,1.1132607460021973,-9.44626522064209,2.0344974994659424
1764544922898805800,21.6618056640625,0.8123632669448853,-10.003793716430664,2.1858434677124023
1764544922915541200,21.678541259765623,0.5970092415809631,-10.564909934997559,2.2749760150909424
1764544922932319500,21.695319580078124,0.43190449476242065,-10.819147109985352,2.3407788276672363
